# TinZr Multi Recording
# DateTime: 2025-12-18T22:03:37.807495
# Device: TinZrBlack
# Address: D8:85:AC:4E:38:6E
time_s,ax,ay,az,gx,gy,gz,red,ir,hr_bpm,spo2_pct,batt_pct
3.457353,-0.013000,-0.925000,0.415000,1.150000,-4.760000,-0.840000,0.000000,0.000000,0.00,0.00,83.00
3.457353,-0.011000,-0.924000,0.414000,1.220000,-4.930000,-0.910000,0.000000,0.000000,0.00,0.00,83.00
3.457353,-0.010000,-0.925000,0.412000,1.570000,-5.040000,-0.910000,0.000000,0.000000,0.00,0.00,83.00
3.457353,-0.009000,-0.925000,0.412000,1.820000,-4.970000,-0.940000,0.000000,0.000000,0.00,0.00,83.00
3.457353,-0.008000,-0.926000,0.414000,2.030000,-4.970000,-0.800000,0.000000,0.000000,0.00,0.00,83.00
3.457353,-0.009000,-0.926000,0.414000,2.450000,-4.900000,-0.700000,0.000000,0.000000,0.00,0.00,83.00
3.457353,-0.010000,-0.925000,0.412000,2.870000,-4.760000,-0.520000,0.000000,0.000000,0.00,0.00,83.00
3.457353,-0.007000,-0.928000,0.415000,2.900000,-4.510000,-0.450000,0.000000,0.000000,0.00,0.00,83.00
3.457353,-0.008000,-0.926000,0.415000,3.290000,-4.580000,-0.420000,0.000000,0.000000,0.00,0.00,83.00
3.516725,-0.009000,-0.926000,0.414000,3.460000,-4.580000,-0.240000,0.000000,0.000000,0.00,0.00,83.00
3.516725,-0.010000,-0.925000,0.416000,3.360000,-4.370000,-0.140000,0.000000,0.000000,0.00,0.00,83.00
3.516725,-0.012000,-0.924000,0.417000,3.390000,-4.510000,-0.210000,0.000000,0.000000,0.00,0.00,83.00
3.516725,-0.010000,-0.921000,0.416000,3.430000,-4.690000,-0.280000,0.000000,0.000000,0.00,0.00,83.00
3.516725,-0.009000,-0.924000,0.417000,3.220000,-4.510000,-0.310000,0.000000,0.000000,0.00,0.00,83.00
3.516725,-0.010000,-0.918000,0.417000,2.970000,-4.580000,-0.420000,0.000000,0.000000,0.00,0.00,83.00
3.516725,-0.011000,-0.923000,0.421000,2.800000,-4.720000,-0.560000,0.000000,0.000000,0.00,0.00,83.00
3.516725,-0.010000,-0.920000,0.421000,2.620000,-4.930000,-0.660000,0.000000,0.000000,0.00,0.00,83.00
3.516725,-0.009000,-0.922000,0.418000,2.100000,-4.690000,-0.590000,0.000000,0.000000,0.00,0.00,83.00
3.518379,-0.010000,-0.922000,0.417000,1.780000,-4.760000,-0.630000,0.000000,0.000000,0.00,0.00,83.00
3.518379,-0.010000,-0.923000,0.418000,1.640000,-4.830000,-0.660000,0.000000,0.000000,0.00,0.00,83.00
3.518379,-0.011000,-0.921000,0.417000,1.400000,-4.830000,-0.840000,0.000000,0.000000,0.00,0.00,83.00
3.518379,-0.012000,-0.923000,0.415000,1.290000,-4.550000,-0.660000,0.000000,0.000000,0.00,0.00,83.00
3.518379,-0.013000,-0.927000,0.416000,1.330000,-4.650000,-0.590000,0.000000,0.000000,0.00,0.00,83.00
3.518379,-0.012000,-0.924000,0.415000,1.400000,-4.860000,-0.660000,0.000000,0.000000,0.00,0.00,83.00
3.518379,-0.010000,-0.926000,0.412000,1.540000,-4.720000,-0.660000,0.000000,0.000000,0.00,0.00,83.00
3.518379,-0.011000,-0.926000,0.414000,1.640000,-4.650000,-0.660000,0.000000,0.000000,0.00,0.00,83.00
3.518379,-0.010000,-0.926000,0.415000,1.920000,-5.000000,-0.800000,0.000000,0.000000,0.00,0.00,83.00
3.636892,-0.008000,-0.926000,0.411000,2.100000,-5.000000,-0.770000,0.000000,0.000000,0.00,0.00,83.00
3.636892,-0.009000,-0.927000,0.415000,2.270000,-4.830000,-0.630000,0.000000,0.000000,0.00,0.00,83.00
3.636892,-0.009000,-0.927000,0.414000,2.520000,-5.070000,-0.730000,0.000000,0.000000,0.00,0.00,83.00
3.636892,-0.009000,-0.927000,0.415000,2.550000,-5.040000,-0.700000,0.000000,0.000000,0.00,0.00,83.00
3.636892,-0.007000,-0.926000,0.416000,2.660000,-4.760000,-0.520000,0.000000,0.000000,0.00,0.00,83.00
3.636892,-0.010000,-0.925000,0.417000,2.760000,-4.860000,-0.380000,0.000000,0.000000,0.00,0.00,83.00
3.636892,-0.011000,-0.924000,0.417000,2.760000,-4.830000,-0.350000,0.000000,0.000000,0.00,0.00,83.00
3.636892,-0.012000,-0.923000,0.414000,2.870000,-4.720000,-0.240000,0.000000,0.000000,0.00,0.00,83.00
3.636892,-0.012000,-0.922000,0.416000,2.830000,-4.690000,-0.280000,0.000000,0.000000,0.00,0.00,83.00
3.696740,-0.013000,-0.924000,0.416000,2.940000,-4.790000,-0.420000,0.000000,0.000000,0.00,0.00,83.00
3.696740,-0.014000,-0.924000,0.416000,2.760000,-4.900000,-0.520000,0.000000,0.000000,0.00,0.00,83.00
3.696740,-0.010000,-0.923000,0.418000,2.550000,-4.690000,-0.560000,0.000000,0.000000,0.00,0.00,83.00
3.696740,-0.011000,-0.925000,0.416000,2.410000,-4.970000,-0.490000,0.000000,0.000000,0.00,0.00,83.00
3.696740,-0.012000,-0.921000,0.416000,2.130000,-5.000000,-0.560000,0.000000,0.000000,0.00,0.00,83.00
3.696740,-0.009000,-0.921000,0.417000,1.960000,-4.830000,-0.590000,0.000000,0.000000,0.00,0.00,83.00
3.696740,-0.009000,-0.923000,0.414000,1.710000,-4.900000,-0.660000,0.000000,0.000000,0.00,0.00,83.00
3.696740,-0.010000,-0.924000,0.419000,1.500000,-4.970000,-0.730000,0.000000,0.000000,0.00,0.00,83.00
3.696740,-0.009000,-0.924000,0.417000,1.540000,-5.070000,-0.590000,0.000000,0.000000,0.00,0.00,83.00
3.698663,-0.010000,-0.923000,0.415000,1.360000,-4.720000,-0.450000,0.000000,0.000000,0.00,0.00,83.00
3.698663,-0.009000,-0.922000,0.414000,1.400000,-4.620000,-0.420000,0.000000,0.000000,0.00,0.00,83.00
3.698663,-0.009000,-0.925000,0.415000,1.640000,-4.790000,-0.310000,0.000000,0.000000,0.00,0.00,83.00
3.698663,-0.010000,-0.927000,0.414000,1.640000,-4.650000,-0.280000,0.000000,0.000000,0.00,0.00,83.00
3.698663,-0.012000,-0.926000,0.415000,1.750000,-4.690000,-0.380000,0.000000,0.000000,0.00,0.00,83.00
3.698663,-0.010000,-0.925000,0.416000,2.100000,-4.830000,-0.310000,0.000000,0.000000,0.00,0.00,83.00
3.698663,-0.010000,-0.924000,0.414000,2.060000,-4.790000,-0.450000,0.000000,0.000000,0.00,0.00,83.00
3.698663,-0.011000,-0.924000,0.413000,2.100000,-4.690000,-0.380000,0.000000,0.000000,0.00,0.00,83.00
3.698663,-0.011000,-0.925000,0.417000,2.450000,-4.790000,-0.380000,0.000000,0.000000,0.00,0.00,83.00
3.700258,-0.012000,-0.925000,0.417000,2.450000,-4.930000,-0.350000,0.000000,0.000000,0.00,0.00,83.00
3.700258,-0.010000,-0.924000,0.416000,2.380000,-4.900000,-0.350000,0.000000,0.000000,0.00,0.00,83.00
3.700258,-0.012000,-0.923000,0.417000,2.270000,-4.720000,-0.420000,0.000000,0.000000,0.00,0.00,83.00
3.700258,-0.012000,-0.921000,0.417000,2.380000,-4.900000,-0.520000,0.000000,0.000000,0.00,0.00,83.00
3.700258,-0.010000,-0.923000,0.416000,1.990000,-4.760000,-0.560000,0.000000,0.000000,0.00,0.00,83.00
3.700258,-0.012000,-0.922000,0.416000,1.640000,-4.650000,-0.560000,0.000000,0.000000,0.00,0.00,83.00
3.700258,-0.010000,-0.921000,0.418000,1.710000,-4.900000,-0.630000,0.000000,0.000000,0.00,0.00,83.00
3.700258,-0.012000,-0.921000,0.417000,1.290000,-4.930000,-0.730000,0.000000,0.000000,0.00,0.00,83.00
3.700258,-0.011000,-0.924000,0.416000,1.080000,-4.900000,-0.700000,0.000000,0.000000,0.00,0.00,83.00
3.702136,-0.010000,-0.925000,0.416000,1.150000,-4.830000,-0.770000,0.000000,0.000000,0.00,0.00,83.00
3.702136,-0.009000,-0.923000,0.415000,0.980000,-5.000000,-0.870000,0.000000,0.000000,0.00,0.00,83.00
3.702136,-0.008000,-0.923000,0.416000,1.080000,-5.110000,-0.770000,0.000000,0.000000,0.00,0.00,83.00
3.702136,-0.009000,-0.925000,0.415000,1.190000,-4.930000,-0.660000,0.000000,0.000000,0.00,0.00,83.00
3.702136,-0.008000,-0.928000,0.414000,1.290000,-4.930000,-0.630000,0.000000,0.000000,0.00,0.00,83.00
3.702136,-0.011000,-0.927000,0.413000,1.570000,-4.900000,-0.700000,0.000000,0.000000,0.00,0.00,83.00
3.702136,-0.009000,-0.926000,0.409000,1.960000,-4.790000,-0.450000,0.000000,0.000000,0.00,0.00,83.00
3.702136,-0.010000,-0.927000,0.412000,2.200000,-4.690000,-0.350000,0.000000,0.000000,0.00,0.00,83.00
3.702136,-0.010000,-0.926000,0.412000,2.590000,-4.790000,-0.310000,0.000000,0.000000,0.00,0.00,83.00
3.757120,-0.010000,-0.925000,0.415000,2.760000,-4.830000,-0.380000,0.000000,0.000000,0.00,0.00,83.00
3.757120,-0.012000,-0.922000,0.413000,2.900000,-4.690000,-0.280000,0.000000,0.000000,0.00,0.00,83.00
3.757120,-0.010000,-0.921000,0.417000,2.940000,-4.790000,-0.350000,0.000000,0.000000,0.00,0.00,83.00
3.757120,-0.012000,-0.924000,0.419000,2.900000,-4.930000,-0.450000,0.000000,0.000000,0.00,0.00,83.00
3.757120,-0.011000,-0.923000,0.420000,2.620000,-4.720000,-0.380000,0.000000,0.000000,0.00,0.00,83.00
3.757120,-0.011000,-0.921000,0.418000,2.270000,-4.860000,-0.450000,0.000000,0.000000,0.00,0.00,83.00
3.757120,-0.010000,-0.923000,0.420000,2.200000,-4.970000,-0.560000,0.000000,0.000000,0.00,0.00,83.00
3.757120,-0.011000,-0.924000,0.420000,1.780000,-4.760000,-0.560000,0.000000,0.000000,0.00,0.00,83.00
3.757120,-0.012000,-0.923000,0.419000,1.540000,-4.860000,-0.630000,0.000000,0.000000,0.00,0.00,83.00
3.759061,-0.013000,-0.925000,0.418000,1.260000,-4.900000,-0.730000,0.000000,0.000000,0.00,0.00,83.00
3.759061,-0.011000,-0.922000,0.417000,1.150000,-5.040000,-0.840000,0.000000,0.000000,0.00,0.00,83.00
3.759061,-0.010000,-0.924000,0.416000,1.010000,-4.830000,-0.770000,0.000000,0.000000,0.00,0.00,83.00
3.759061,-0.010000,-0.924000,0.413000,1.080000,-4.830000,-0.700000,0.000000,0.000000,0.00,0.00,83.00
3.759061,-0.010000,-0.924000,0.415000,1.220000,-5.070000,-0.730000,0.000000,0.000000,0.00,0.00,83.00
3.759061,-0.010000,-0.923000,0.412000,1.400000,-4.930000,-0.770000,0.000000,0.000000,0.00,0.00,83.00
3.759061,-0.009000,-0.924000,0.414000,1.500000,-4.860000,-0.770000,0.000000,0.000000,0.00,0.00,83.00
3.759061,-0.009000,-0.925000,0.412000,1.850000,-4.860000,-0.700000,0.000000,0.000000,0.00,0.00,83.00
3.759061,-0.010000,-0.927000,0.412000,1.920000,-5.000000,-0.700000,0.000000,0.000000,0.00,0.00,83.00
3.816574,-0.010000,-0.926000,0.415000,1.990000,-4.900000,-0.590000,0.000000,0.000000,0.00,0.00,83.00
3.816574,-0.008000,-0.928000,0.415000,2.030000,-4.720000,-0.450000,0.000000,0.000000,0.00,0.00,83.00
3.816574,-0.011000,-0.928000,0.414000,2.310000,-5.040000,-0.560000,0.000000,0.000000,0.00,0.00,83.00
3.816574,-0.008000,-0.925000,0.416000,2.340000,-4.900000,-0.490000,0.000000,0.000000,0.00,0.00,83.00
3.816574,-0.009000,-0.927000,0.416000,2.450000,-4.550000,-0.350000,0.000000,0.000000,0.00,0.00,83.00
3.816574,-0.012000,-0.924000,0.416000,2.550000,-4.860000,-0.420000,0.000000,0.000000,0.00,0.00,83.00
3.816574,-0.010000,-0.923000,0.416000,2.550000,-4.860000,-0.450000,0.000000,0.000000,0.00,0.00,83.00
3.816574,-0.011000,-0.921000,0.416000,2.590000,-4.760000,-0.420000,0.000000,0.000000,0.00,0.00,83.00
3.816574,-0.012000,-0.923000,0.414000,2.620000,-4.930000,-0.520000,0.000000,0.000000,0.00,0.00,83.00
3.817891,-0.011000,-0.922000,0.415000,2.550000,-4.970000,-0.590000,0.000000,0.000000,0.00,0.00,83.00
3.817891,-0.011000,-0.923000,0.413000,2.200000,-4.860000,-0.700000,0.000000,0.000000,0.00,0.00,83.00
3.817891,-0.013000,-0.922000,0.417000,2.200000,-4.830000,-0.730000,0.000000,0.000000,0.00,0.00,83.00
3.817891,-0.010000,-0.924000,0.414000,2.100000,-4.970000,-0.630000,0.000000,0.000000,0.00,0.00,83.00
3.817891,-0.010000,-0.923000,0.414000,1.890000,-5.000000,-0.730000,0.000000,0.000000,0.00,0.00,83.00
3.817891,-0.011000,-0.927000,0.413000,1.750000,-4.690000,-0.660000,0.000000,0.000000,0.00,0.00,83.00
3.817891,-0.008000,-0.926000,0.413000,1.750000,-4.790000,-0.630000,0.000000,0.000000,0.00,0.00,83.00
3.817891,-0.010000,-0.926000,0.415000,1.780000,-4.860000,-0.660000,0.000000,0.000000,0.00,0.00,83.00
3.817891,-0.012000,-0.927000,0.414000,1.680000,-4.720000,-0.730000,0.000000,0.000000,0.00,0.00,83.00
3.876507,-0.010000,-0.927000,0.412000,1.920000,-4.620000,-0.630000,0.000000,0.000000,0.00,0.00,83.00
3.876507,-0.011000,-0.927000,0.413000,2.130000,-4.790000,-0.590000,0.000000,0.000000,0.00,0.00,83.00
3.876507,-0.010000,-0.924000,0.413000,2.340000,-4.970000,-0.590000,0.000000,0.000000,0.00,0.00,83.00
3.876507,-0.010000,-0.925000,0.416000,2.310000,-4.690000,-0.590000,0.000000,0.000000,0.00,0.00,83.00
3.876507,-0.012000,-0.925000,0.414000,2.480000,-4.790000,-0.560000,0.000000,0.000000,0.00,0.00,83.00
3.876507,-0.010000,-0.924000,0.417000,2.690000,-4.860000,-0.520000,0.000000,0.000000,0.00,0.00,83.00
3.876507,-0.011000,-0.926000,0.415000,2.620000,-4.760000,-0.490000,0.000000,0.000000,0.00,0.00,83.00
3.876507,-0.011000,-0.924000,0.418000,2.550000,-4.690000,-0.490000,0.000000,0.000000,0.00,0.00,83.00
3.876507,-0.011000,-0.924000,0.417000,2.410000,-4.720000,-0.490000,0.000000,0.000000,0.00,0.00,83.00
3.936431,-0.011000,-0.925000,0.417000,2.380000,-4.760000,-0.520000,0.000000,0.000000,0.00,0.00,83.00
3.936431,-0.013000,-0.922000,0.416000,2.130000,-4.650000,-0.350000,0.000000,0.000000,0.00,0.00,83.00
3.936431,-0.013000,-0.923000,0.417000,1.990000,-4.650000,-0.560000,0.000000,0.000000,0.00,0.00,83.00
3.936431,-0.011000,-0.925000,0.417000,2.030000,-4.830000,-0.630000,0.000000,0.000000,0.00,0.00,83.00
3.936431,-0.012000,-0.924000,0.417000,1.960000,-4.790000,-0.700000,0.000000,0.000000,0.00,0.00,83.00
3.936431,-0.010000,-0.927000,0.415000,1.820000,-4.650000,-0.660000,0.000000,0.000000,0.00,0.00,83.00
3.936431,-0.010000,-0.926000,0.416000,2.130000,-4.900000,-0.770000,0.000000,0.000000,0.00,0.00,83.00
3.936431,-0.011000,-0.924000,0.414000,1.890000,-4.790000,-0.730000,0.000000,0.000000,0.00,0.00,83.00
3.936431,-0.010000,-0.923000,0.413000,1.890000,-4.900000,-0.700000,0.000000,0.000000,0.00,0.00,83.00
3.937766,-0.010000,-0.923000,0.413000,1.890000,-4.930000,-0.840000,0.000000,0.000000,0.00,0.00,83.00
3.937766,-0.010000,-0.922000,0.412000,1.960000,-5.070000,-0.840000,0.000000,0.000000,0.00,0.00,83.00
3.937766,-0.011000,-0.924000,0.413000,2.200000,-4.900000,-0.840000,0.000000,0.000000,0.00,0.00,83.00
3.937766,-0.010000,-0.927000,0.414000,2.100000,-4.830000,-0.660000,0.000000,0.000000,0.00,0.00,83.00
3.937766,-0.007000,-0.926000,0.414000,2.340000,-4.760000,-0.560000,0.000000,0.000000,0.00,0.00,83.00
3.937766,-0.008000,-0.926000,0.415000,2.450000,-4.720000,-0.490000,0.000000,0.000000,0.00,0.00,83.00
3.937766,-0.008000,-0.927000,0.412000,2.520000,-4.690000,-0.350000,0.000000,0.000000,0.00,0.00,83.00
3.937766,-0.009000,-0.927000,0.417000,2.620000,-4.690000,-0.310000,0.000000,0.000000,0.00,0.00,83.00
3.937766,-0.010000,-0.926000,0.415000,2.870000,-4.830000,-0.350000,0.000000,0.000000,0.00,0.00,83.00
3.996478,-0.012000,-0.924000,0.415000,2.830000,-4.900000,-0.420000,0.000000,0.000000,0.00,0.00,83.00
3.996478,-0.010000,-0.923000,0.416000,2.830000,-4.760000,-0.310000,0.000000,0.000000,0.00,0.00,83.00
3.996478,-0.011000,-0.923000,0.415000,2.760000,-4.860000,-0.420000,0.000000,0.000000,0.00,0.00,83.00
3.996478,-0.010000,-0.924000,0.418000,2.870000,-5.070000,-0.420000,0.000000,0.000000,0.00,0.00,83.00
3.996478,-0.010000,-0.922000,0.417000,2.590000,-4.720000,-0.420000,0.000000,0.000000,0.00,0.00,83.00
3.996478,-0.012000,-0.924000,0.417000,2.410000,-4.790000,-0.490000,0.000000,0.000000,0.00,0.00,83.00
3.996478,-0.010000,-0.922000,0.418000,2.310000,-4.790000,-0.630000,0.000000,0.000000,0.00,0.00,83.00
3.996478,-0.009000,-0.919000,0.416000,2.200000,-4.620000,-0.630000,0.000000,0.000000,0.00,0.00,83.00
3.996478,-0.012000,-0.923000,0.418000,1.960000,-4.550000,-0.700000,0.000000,0.000000,0.00,0.00,83.00
3.997749,-0.009000,-0.926000,0.416000,1.920000,-4.580000,-0.630000,0.000000,0.000000,0.00,0.00,83.00
3.997749,-0.012000,-0.926000,0.416000,1.780000,-4.690000,-0.700000,0.000000,0.000000,0.00,0.00,83.00
3.997749,-0.011000,-0.926000,0.415000,1.640000,-4.650000,-0.700000,0.000000,0.000000,0.00,0.00,83.00
3.997749,-0.010000,-0.924000,0.418000,1.820000,-4.790000,-0.730000,0.000000,0.000000,0.00,0.00,83.00
3.997749,-0.010000,-0.926000,0.415000,2.030000,-5.000000,-0.800000,0.000000,0.000000,0.00,0.00,83.00
3.997749,-0.010000,-0.927000,0.416000,2.100000,-4.900000,-0.800000,0.000000,0.000000,0.00,0.00,83.00
3.997749,-0.011000,-0.924000,0.415000,2.270000,-4.930000,-0.800000,0.000000,0.000000,0.00,0.00,83.00
3.997749,-0.010000,-0.924000,0.413000,2.480000,-5.110000,-0.730000,0.000000,0.000000,0.00,0.00,83.00
3.997749,-0.010000,-0.924000,0.414000,2.590000,-5.070000,-0.800000,0.000000,0.000000,0.00,0.00,83.00
4.056907,-0.007000,-0.925000,0.417000,2.620000,-4.830000,-0.730000,0.000000,0.000000,0.00,0.00,83.00
4.056907,-0.009000,-0.925000,0.414000,2.480000,-4.690000,-0.520000,0.000000,0.000000,0.00,0.00,83.00
4.056907,-0.010000,-0.925000,0.413000,2.620000,-4.860000,-0.590000,0.000000,0.000000,0.00,0.00,83.00
4.056907,-0.009000,-0.922000,0.415000,2.380000,-4.790000,-0.450000,0.000000,0.000000,0.00,0.00,83.00
4.056907,-0.010000,-0.923000,0.416000,2.240000,-4.620000,-0.420000,0.000000,0.000000,0.00,0.00,83.00
4.056907,-0.012000,-0.922000,0.416000,2.240000,-4.830000,-0.490000,0.000000,0.000000,0.00,0.00,83.00
4.056907,-0.011000,-0.922000,0.417000,2.100000,-4.970000,-0.560000,0.000000,0.000000,0.00,0.00,83.00
4.056907,-0.010000,-0.924000,0.415000,1.750000,-4.860000,-0.590000,0.000000,0.000000,0.00,0.00,83.00
4.056907,-0.010000,-0.923000,0.413000,1.820000,-4.860000,-0.660000,0.000000,0.000000,0.00,0.00,83.00
4.116679,-0.011000,-0.922000,0.416000,1.710000,-5.000000,-0.770000,0.000000,0.000000,0.00,0.00,83.00
4.116679,-0.010000,-0.924000,0.415000,1.780000,-5.000000,-0.770000,0.000000,0.000000,0.00,0.00,83.00
4.116679,-0.010000,-0.924000,0.413000,1.680000,-4.760000,-0.700000,0.000000,0.000000,0.00,0.00,83.00
4.116679,-0.009000,-0.924000,0.411000,1.820000,-4.970000,-0.630000,0.000000,0.000000,0.00,0.00,83.00
4.116679,-0.010000,-0.927000,0.413000,2.130000,-4.930000,-0.700000,0.000000,0.000000,0.00,0.00,83.00
4.116679,-0.010000,-0.926000,0.414000,2.030000,-4.620000,-0.450000,0.000000,0.000000,0.00,0.00,83.00
4.116679,-0.011000,-0.924000,0.415000,2.340000,-4.690000,-0.490000,0.000000,0.000000,0.00,0.00,83.00
4.116679,-0.009000,-0.926000,0.417000,2.550000,-4.830000,-0.420000,0.000000,0.000000,0.00,0.00,83.00
4.116679,-0.011000,-0.924000,0.414000,2.480000,-4.620000,-0.490000,0.000000,0.000000,0.00,0.00,83.00
4.117826,-0.011000,-0.926000,0.416000,2.660000,-4.650000,-0.420000,0.000000,0.000000,0.00,0.00,83.00
4.117826,-0.011000,-0.925000,0.416000,2.690000,-4.760000,-0.560000,0.000000,0.000000,0.00,0.00,83.00
4.117826,-0.011000,-0.925000,0.418000,2.660000,-4.760000,-0.490000,0.000000,0.000000,0.00,0.00,83.00
4.117826,-0.010000,-0.923000,0.418000,2.450000,-4.760000,-0.520000,0.000000,0.000000,0.00,0.00,83.00
4.117826,-0.010000,-0.921000,0.416000,2.310000,-4.720000,-0.590000,0.000000,0.000000,0.00,0.00,83.00
4.117826,-0.010000,-0.925000,0.416000,1.990000,-4.930000,-0.520000,0.000000,0.000000,0.00,0.00,83.00
4.117826,-0.010000,-0.923000,0.418000,1.920000,-4.930000,-0.660000,0.000000,0.000000,0.00,0.00,83.00
4.117826,-0.014000,-0.924000,0.416000,1.710000,-4.790000,-0.730000,0.000000,0.000000,0.00,0.00,83.00
4.117826,-0.010000,-0.924000,0.414000,1.610000,-4.830000,-0.700000,0.000000,0.000000,0.00,0.00,83.00
4.176593,-0.010000,-0.923000,0.413000,1.640000,-5.040000,-0.800000,0.000000,0.000000,0.00,0.00,83.00
4.176593,-0.011000,-0.924000,0.414000,1.470000,-4.830000,-0.700000,0.000000,0.000000,0.00,0.00,83.00
4.176593,-0.011000,-0.924000,0.415000,1.430000,-4.720000,-0.730000,0.000000,0.000000,0.00,0.00,83.00
4.176593,-0.009000,-0.922000,0.415000,1.680000,-5.040000,-0.770000,0.000000,0.000000,0.00,0.00,83.00
4.176593,-0.010000,-0.925000,0.414000,1.780000,-5.000000,-0.700000,0.000000,0.000000,0.00,0.00,83.00
4.176593,-0.009000,-0.927000,0.415000,1.850000,-4.690000,-0.700000,0.000000,0.000000,0.00,0.00,83.00
4.176593,-0.010000,-0.927000,0.414000,2.030000,-4.760000,-0.560000,0.000000,0.000000,0.00,0.00,83.00
4.176593,-0.008000,-0.928000,0.415000,2.340000,-4.860000,-0.630000,0.000000,0.000000,0.00,0.00,83.00
4.176593,-0.010000,-0.930000,0.416000,2.340000,-4.690000,-0.520000,0.000000,0.000000,0.00,0.00,83.00
4.178579,-0.010000,-0.926000,0.414000,2.450000,-4.650000,-0.450000,0.000000,0.000000,0.00,0.00,83.00
4.178579,-0.011000,-0.924000,0.413000,2.620000,-4.860000,-0.490000,0.000000,0.000000,0.00,0.00,83.00
4.178579,-0.011000,-0.921000,0.414000,2.690000,-4.900000,-0.560000,0.000000,0.000000,0.00,0.00,83.00
4.178579,-0.013000,-0.923000,0.416000,2.550000,-4.760000,-0.590000,0.000000,0.000000,0.00,0.00,83.00
4.178579,-0.009000,-0.922000,0.418000,2.550000,-5.000000,-0.700000,0.000000,0.000000,0.00,0.00,83.00
4.178579,-0.010000,-0.924000,0.416000,2.310000,-5.110000,-0.770000,0.000000,0.000000,0.00,0.00,83.00
4.178579,-0.011000,-0.925000,0.417000,2.170000,-5.040000,-0.800000,0.000000,0.000000,0.00,0.00,83.00
4.178579,-0.009000,-0.922000,0.418000,1.850000,-4.860000,-0.700000,0.000000,0.000000,0.00,0.00,83.00
4.178579,-0.009000,-0.924000,0.414000,1.820000,-4.900000,-0.770000,0.000000,0.000000,0.00,0.00,83.00
4.236590,-0.010000,-0.925000,0.416000,1.990000,-5.040000,-0.700000,0.000000,0.000000,0.00,0.00,83.00
4.236590,-0.011000,-0.926000,0.414000,1.710000,-4.690000,-0.560000,0.000000,0.000000,0.00,0.00,83.00
4.236590,-0.011000,-0.926000,0.416000,1.750000,-4.650000,-0.590000,0.000000,0.000000,0.00,0.00,83.00
4.236590,-0.010000,-0.925000,0.416000,2.030000,-4.720000,-0.490000,0.000000,0.000000,0.00,0.00,83.00
4.236590,-0.012000,-0.926000,0.415000,1.890000,-4.650000,-0.560000,0.000000,0.000000,0.00,0.00,83.00
4.236590,-0.011000,-0.925000,0.415000,2.100000,-4.620000,-0.450000,0.000000,0.000000,0.00,0.00,83.00
4.236590,-0.011000,-0.925000,0.414000,2.270000,-4.830000,-0.520000,0.000000,0.000000,0.00,0.00,83.00
4.236590,-0.010000,-0.922000,0.414000,2.340000,-4.930000,-0.590000,0.000000,0.000000,0.00,0.00,83.00
4.236590,-0.011000,-0.923000,0.416000,2.200000,-4.930000,-0.700000,0.000000,0.000000,0.00,0.00,83.00
4.297138,-0.009000,-0.925000,0.417000,2.170000,-4.830000,-0.800000,0.000000,0.000000,0.00,0.00,83.00
4.297138,-0.009000,-0.924000,0.415000,2.270000,-4.970000,-0.800000,0.000000,0.000000,0.00,0.00,83.00
4.297138,-0.008000,-0.926000,0.416000,1.990000,-4.860000,-0.730000,0.000000,0.000000,0.00,0.00,83.00
4.297138,-0.008000,-0.924000,0.417000,1.890000,-4.720000,-0.700000,0.000000,0.000000,0.00,0.00,83.00
4.297138,-0.009000,-0.924000,0.416000,1.920000,-4.970000,-0.630000,0.000000,0.000000,0.00,0.00,83.00
4.297138,-0.010000,-0.924000,0.415000,1.850000,-4.970000,-0.660000,0.000000,0.000000,0.00,0.00,83.00
4.297138,-0.011000,-0.922000,0.414000,1.680000,-4.830000,-0.590000,0.000000,0.000000,0.00,0.00,83.00
4.297138,-0.011000,-0.922000,0.412000,1.750000,-4.900000,-0.630000,0.000000,0.000000,0.00,0.00,83.00
4.297138,-0.009000,-0.921000,0.411000,1.710000,-5.000000,-0.700000,0.000000,0.000000,0.00,0.00,83.00
4.298506,-0.011000,-0.922000,0.415000,1.990000,-5.070000,-0.840000,0.000000,0.000000,0.00,0.00,83.00
4.298506,-0.009000,-0.924000,0.413000,1.960000,-4.790000,-0.770000,0.000000,0.000000,0.00,0.00,83.00
4.298506,-0.008000,-0.924000,0.415000,2.130000,-4.970000,-0.730000,0.000000,0.000000,0.00,0.00,83.00
4.298506,-0.009000,-0.925000,0.415000,2.060000,-5.000000,-0.660000,0.000000,0.000000,0.00,0.00,83.00
4.298506,-0.008000,-0.925000,0.416000,2.100000,-4.760000,-0.590000,0.000000,0.000000,0.00,0.00,83.00
4.298506,-0.008000,-0.927000,0.417000,2.130000,-4.650000,-0.520000,0.000000,0.000000,0.00,0.00,83.00
4.298506,-0.008000,-0.926000,0.415000,2.270000,-4.830000,-0.350000,0.000000,0.000000,0.00,0.00,83.00
4.298506,-0.009000,-0.927000,0.415000,2.450000,-4.790000,-0.380000,0.000000,0.000000,0.00,0.00,83.00
4.298506,-0.011000,-0.926000,0.415000,2.380000,-4.550000,-0.280000,0.000000,0.000000,0.00,0.00,83.00
4.356915,-0.012000,-0.927000,0.417000,2.520000,-4.620000,-0.310000,0.000000,0.000000,0.00,0.00,83.00
4.356915,-0.012000,-0.925000,0.417000,2.800000,-4.830000,-0.350000,0.000000,0.000000,0.00,0.00,83.00
4.356915,-0.010000,-0.923000,0.416000,2.590000,-4.690000,-0.350000,0.000000,0.000000,0.00,0.00,83.00
4.356915,-0.014000,-0.924000,0.416000,2.660000,-4.760000,-0.450000,0.000000,0.000000,0.00,0.00,83.00
4.356915,-0.012000,-0.922000,0.418000,2.550000,-5.040000,-0.560000,0.000000,0.000000,0.00,0.00,83.00
4.356915,-0.011000,-0.924000,0.418000,2.310000,-4.860000,-0.590000,0.000000,0.000000,0.00,0.00,83.00
4.356915,-0.010000,-0.920000,0.419000,2.060000,-4.860000,-0.630000,0.000000,0.000000,0.00,0.00,83.00
4.356915,-0.010000,-0.922000,0.418000,1.780000,-4.860000,-0.700000,0.000000,0.000000,0.00,0.00,83.00
4.356915,-0.009000,-0.920000,0.417000,1.680000,-4.970000,-0.590000,0.000000,0.000000,0.00,0.00,83.00
4.357773,-0.009000,-0.921000,0.417000,1.360000,-4.760000,-0.700000,0.000000,0.000000,0.00,0.00,83.00
4.357773,-0.011000,-0.924000,0.417000,1.220000,-4.620000,-0.630000,0.000000,0.000000,0.00,0.00,83.00
4.357773,-0.009000,-0.926000,0.414000,1.260000,-4.830000,-0.730000,0.000000,0.000000,0.00,0.00,83.00
4.357773,-0.010000,-0.927000,0.415000,1.220000,-4.790000,-0.770000,0.000000,0.000000,0.00,0.00,83.00
4.357773,-0.009000,-0.926000,0.413000,1.330000,-4.650000,-0.700000,0.000000,0.000000,0.00,0.00,83.00
4.357773,-0.011000,-0.927000,0.414000,1.500000,-4.720000,-0.770000,0.000000,0.000000,0.00,0.00,83.00
4.357773,-0.009000,-0.928000,0.413000,1.750000,-5.000000,-0.730000,0.000000,0.000000,0.00,0.00,83.00
4.357773,-0.010000,-0.925000,0.413000,1.960000,-4.860000,-0.660000,0.000000,0.000000,0.00,0.00,83.00
4.357773,-0.010000,-0.927000,0.412000,2.240000,-4.690000,-0.630000,0.000000,0.000000,0.00,0.00,83.00
4.418193,-0.010000,-0.926000,0.411000,2.520000,-5.070000,-0.660000,0.000000,0.000000,0.00,0.00,83.00
4.418193,-0.009000,-0.926000,0.414000,2.690000,-4.930000,-0.560000,0.000000,0.000000,0.00,0.00,83.00
4.418193,-0.008000,-0.926000,0.415000,2.870000,-4.720000,-0.380000,0.000000,0.000000,0.00,0.00,83.00
4.418193,-0.008000,-0.926000,0.414000,3.040000,-4.830000,-0.380000,0.000000,0.000000,0.00,0.00,83.00
4.418193,-0.010000,-0.925000,0.415000,3.010000,-4.760000,-0.420000,0.000000,0.000000,0.00,0.00,83.00
4.418193,-0.009000,-0.927000,0.417000,2.900000,-4.760000,-0.310000,0.000000,0.000000,0.00,0.00,83.00
4.418193,-0.011000,-0.924000,0.418000,2.730000,-4.550000,-0.280000,0.000000,0.000000,0.00,0.00,83.00
4.418193,-0.011000,-0.924000,0.420000,2.690000,-4.690000,-0.450000,0.000000,0.000000,0.00,0.00,83.00
4.418193,-0.012000,-0.924000,0.415000,2.550000,-4.900000,-0.560000,0.000000,0.000000,0.00,0.00,83.00
4.476695,-0.012000,-0.924000,0.420000,2.270000,-4.620000,-0.560000,0.000000,0.000000,0.00,0.00,83.00
4.476695,-0.012000,-0.921000,0.416000,2.170000,-4.860000,-0.660000,0.000000,0.000000,0.00,0.00,83.00
4.476695,-0.010000,-0.925000,0.416000,1.990000,-5.000000,-0.730000,0.000000,0.000000,0.00,0.00,83.00
4.476695,-0.010000,-0.922000,0.415000,1.920000,-4.760000,-0.770000,0.000000,0.000000,0.00,0.00,83.00
4.476695,-0.011000,-0.926000,0.414000,1.710000,-4.830000,-0.870000,0.000000,0.000000,0.00,0.00,83.00
4.476695,-0.012000,-0.925000,0.416000,1.710000,-4.860000,-0.940000,0.000000,0.000000,0.00,0.00,83.00
4.476695,-0.009000,-0.924000,0.415000,1.710000,-4.650000,-0.840000,0.000000,0.000000,0.00,0.00,83.00
4.476695,-0.009000,-0.924000,0.415000,1.780000,-4.650000,-0.660000,0.000000,0.000000,0.00,0.00,83.00
4.476695,-0.010000,-0.926000,0.411000,2.100000,-4.760000,-0.730000,0.000000,0.000000,0.00,0.00,83.00
4.477937,-0.011000,-0.925000,0.413000,2.240000,-4.830000,-0.700000,0.000000,0.000000,0.00,0.00,83.00
4.477937,-0.010000,-0.926000,0.413000,2.410000,-4.650000,-0.730000,0.000000,0.000000,0.00,0.00,83.00
4.477937,-0.011000,-0.926000,0.416000,2.520000,-4.650000,-0.660000,0.000000,0.000000,0.00,0.00,83.00
4.477937,-0.011000,-0.924000,0.415000,2.830000,-4.760000,-0.590000,0.000000,0.000000,0.00,0.00,83.00
4.477937,-0.009000,-0.926000,0.415000,2.690000,-4.830000,-0.700000,0.000000,0.000000,0.00,0.00,83.00
4.477937,-0.011000,-0.926000,0.416000,2.730000,-4.720000,-0.590000,0.000000,0.000000,0.00,0.00,83.00
4.477937,-0.011000,-0.926000,0.418000,2.760000,-4.650000,-0.490000,0.000000,0.000000,0.00,0.00,83.00
4.477937,-0.010000,-0.926000,0.418000,2.830000,-4.970000,-0.660000,0.000000,0.000000,0.00,0.00,83.00
4.477937,-0.010000,-0.924000,0.417000,2.660000,-4.830000,-0.560000,0.000000,0.000000,0.00,0.00,83.00
4.536344,-0.009000,-0.926000,0.416000,2.520000,-4.650000,-0.450000,0.000000,0.000000,0.00,0.00,83.00
4.536344,-0.009000,-0.923000,0.417000,2.550000,-4.930000,-0.560000,0.000000,0.000000,0.00,0.00,83.00
4.536344,-0.011000,-0.922000,0.418000,2.450000,-4.790000,-0.560000,0.000000,0.000000,0.00,0.00,83.00
4.536344,-0.010000,-0.922000,0.415000,2.170000,-4.760000,-0.590000,0.000000,0.000000,0.00,0.00,83.00
4.536344,-0.012000,-0.922000,0.415000,2.200000,-4.900000,-0.770000,0.000000,0.000000,0.00,0.00,83.00
4.536344,-0.012000,-0.921000,0.417000,2.100000,-4.970000,-0.770000,0.000000,0.000000,0.00,0.00,83.00
4.536344,-0.012000,-0.924000,0.417000,1.920000,-4.930000,-0.770000,0.000000,0.000000,0.00,0.00,83.00
4.536344,-0.010000,-0.924000,0.415000,1.890000,-4.860000,-0.800000,0.000000,0.000000,0.00,0.00,83.00
4.536344,-0.010000,-0.926000,0.416000,1.850000,-4.900000,-0.870000,0.000000,0.000000,0.00,0.00,83.00
4.538300,-0.008000,-0.926000,0.416000,1.850000,-4.970000,-0.800000,0.000000,0.000000,0.00,0.00,83.00
4.538300,-0.008000,-0.926000,0.417000,1.780000,-4.650000,-0.730000,0.000000,0.000000,0.00,0.00,83.00
4.538300,-0.010000,-0.925000,0.415000,1.890000,-4.720000,-0.770000,0.000000,0.000000,0.00,0.00,83.00
4.538300,-0.010000,-0.925000,0.416000,2.030000,-4.830000,-0.730000,0.000000,0.000000,0.00,0.00,83.00
4.538300,-0.009000,-0.926000,0.413000,1.920000,-4.970000,-0.700000,0.000000,0.000000,0.00,0.00,83.00
4.538300,-0.009000,-0.924000,0.414000,2.170000,-4.650000,-0.590000,0.000000,0.000000,0.00,0.00,83.00
4.538300,-0.010000,-0.926000,0.415000,2.310000,-4.790000,-0.590000,0.000000,0.000000,0.00,0.00,83.00
4.538300,-0.012000,-0.926000,0.414000,2.590000,-4.830000,-0.630000,0.000000,0.000000,0.00,0.00,83.00
4.538300,-0.010000,-0.924000,0.416000,2.550000,-4.690000,-0.490000,0.000000,0.000000,0.00,0.00,83.00
4.596482,-0.009000,-0.924000,0.414000,2.800000,-4.690000,-0.520000,0.000000,0.000000,0.00,0.00,83.00
4.596482,-0.009000,-0.923000,0.415000,2.760000,-4.760000,-0.590000,0.000000,0.000000,0.00,0.00,83.00
4.596482,-0.011000,-0.922000,0.416000,2.730000,-4.690000,-0.560000,0.000000,0.000000,0.00,0.00,83.00
4.596482,-0.009000,-0.924000,0.417000,2.550000,-4.620000,-0.350000,0.000000,0.000000,0.00,0.00,83.00
4.596482,-0.010000,-0.925000,0.417000,2.480000,-4.650000,-0.490000,0.000000,0.000000,0.00,0.00,83.00
4.596482,-0.010000,-0.923000,0.416000,2.410000,-4.720000,-0.520000,0.000000,0.000000,0.00,0.00,83.00
4.596482,-0.007000,-0.924000,0.417000,2.240000,-4.760000,-0.630000,0.000000,0.000000,0.00,0.00,83.00
4.596482,-0.011000,-0.924000,0.417000,2.060000,-4.650000,-0.590000,0.000000,0.000000,0.00,0.00,83.00
4.596482,-0.010000,-0.924000,0.418000,2.030000,-4.860000,-0.730000,0.000000,0.000000,0.00,0.00,83.00
4.657100,-0.010000,-0.926000,0.418000,1.890000,-4.830000,-0.630000,0.000000,0.000000,0.00,0.00,83.00
4.657100,-0.010000,-0.924000,0.416000,1.640000,-4.830000,-0.770000,0.000000,0.000000,0.00,0.00,83.00
4.657100,-0.010000,-0.923000,0.417000,1.750000,-5.000000,-0.800000,0.000000,0.000000,0.00,0.00,83.00
4.657100,-0.013000,-0.924000,0.415000,1.780000,-4.930000,-0.840000,0.000000,0.000000,0.00,0.00,83.00
4.657100,-0.011000,-0.923000,0.416000,1.780000,-4.900000,-0.770000,0.000000,0.000000,0.00,0.00,83.00
4.657100,-0.010000,-0.924000,0.414000,1.890000,-4.830000,-0.730000,0.000000,0.000000,0.00,0.00,83.00
4.657100,-0.008000,-0.925000,0.415000,2.030000,-4.900000,-0.730000,0.000000,0.000000,0.00,0.00,83.00
4.657100,-0.009000,-0.923000,0.413000,2.030000,-4.830000,-0.700000,0.000000,0.000000,0.00,0.00,83.00
4.657100,-0.009000,-0.927000,0.413000,2.100000,-4.720000,-0.660000,0.000000,0.000000,0.00,0.00,83.00
4.658843,-0.009000,-0.927000,0.413000,2.380000,-4.790000,-0.630000,0.000000,0.000000,0.00,0.00,83.00
4.658843,-0.007000,-0.924000,0.413000,2.550000,-4.900000,-0.630000,0.000000,0.000000,0.00,0.00,83.00
4.658843,-0.009000,-0.925000,0.417000,2.590000,-4.900000,-0.700000,0.000000,0.000000,0.00,0.00,83.00
4.658843,-0.009000,-0.925000,0.416000,2.590000,-4.620000,-0.520000,0.000000,0.000000,0.00,0.00,83.00
4.658843,-0.010000,-0.923000,0.415000,2.590000,-4.830000,-0.560000,0.000000,0.000000,0.00,0.00,83.00
4.658843,-0.009000,-0.925000,0.416000,2.660000,-4.930000,-0.560000,0.000000,0.000000,0.00,0.00,83.00
4.658843,-0.009000,-0.922000,0.417000,2.520000,-4.620000,-0.490000,0.000000,0.000000,0.00,0.00,83.00
4.658843,-0.011000,-0.923000,0.418000,2.480000,-4.860000,-0.520000,0.000000,0.000000,0.00,0.00,83.00
4.658843,-0.009000,-0.923000,0.415000,2.410000,-4.900000,-0.660000,0.000000,0.000000,0.00,0.00,83.00
4.717412,-0.011000,-0.924000,0.414000,2.340000,-4.760000,-0.630000,0.000000,0.000000,0.00,0.00,83.00
4.717412,-0.011000,-0.923000,0.416000,2.170000,-4.650000,-0.590000,0.000000,0.000000,0.00,0.00,83.00
4.717412,-0.010000,-0.925000,0.417000,2.100000,-4.860000,-0.660000,0.000000,0.000000,0.00,0.00,83.00
4.717412,-0.010000,-0.926000,0.418000,1.850000,-4.760000,-0.660000,0.000000,0.000000,0.00,0.00,83.00
4.717412,-0.008000,-0.925000,0.417000,1.820000,-4.760000,-0.630000,0.000000,0.000000,0.00,0.00,83.00
4.717412,-0.013000,-0.924000,0.416000,1.680000,-4.720000,-0.590000,0.000000,0.000000,0.00,0.00,83.00
4.717412,-0.008000,-0.925000,0.414000,1.780000,-4.830000,-0.630000,0.000000,0.000000,0.00,0.00,83.00
4.717412,-0.010000,-0.926000,0.413000,1.780000,-4.720000,-0.590000,0.000000,0.000000,0.00,0.00,83.00
4.717412,-0.007000,-0.925000,0.414000,2.060000,-4.580000,-0.450000,0.000000,0.000000,0.00,0.00,83.00
4.719350,-0.010000,-0.928000,0.418000,2.240000,-4.510000,-0.590000,0.000000,0.000000,0.00,0.00,83.00
4.719350,-0.010000,-0.925000,0.413000,2.270000,-4.760000,-0.660000,0.000000,0.000000,0.00,0.00,83.00
4.719350,-0.009000,-0.923000,0.413000,2.380000,-4.690000,-0.630000,0.000000,0.000000,0.00,0.00,83.00
4.719350,-0.009000,-0.923000,0.412000,2.480000,-4.720000,-0.590000,0.000000,0.000000,0.00,0.00,83.00
4.719350,-0.011000,-0.920000,0.416000,2.550000,-4.970000,-0.560000,0.000000,0.000000,0.00,0.00,83.00
4.719350,-0.008000,-0.924000,0.413000,2.520000,-4.860000,-0.630000,0.000000,0.000000,0.00,0.00,83.00
4.719350,-0.011000,-0.925000,0.416000,2.520000,-4.760000,-0.560000,0.000000,0.000000,0.00,0.00,83.00
4.719350,-0.010000,-0.927000,0.419000,2.480000,-4.900000,-0.660000,0.000000,0.000000,0.00,0.00,83.00
4.719350,-0.009000,-0.924000,0.418000,2.520000,-4.970000,-0.770000,0.000000,0.000000,0.00,0.00,83.00
4.777010,-0.008000,-0.926000,0.416000,2.130000,-4.650000,-0.560000,0.000000,0.000000,0.00,0.00,83.00
4.777010,-0.008000,-0.925000,0.417000,2.170000,-4.690000,-0.590000,0.000000,0.000000,0.00,0.00,83.00
4.777010,-0.009000,-0.925000,0.418000,2.130000,-4.970000,-0.560000,0.000000,0.000000,0.00,0.00,83.00
4.777010,-0.010000,-0.926000,0.415000,2.100000,-4.790000,-0.630000,0.000000,0.000000,0.00,0.00,83.00
4.777010,-0.011000,-0.926000,0.416000,1.990000,-4.650000,-0.520000,0.000000,0.000000,0.00,0.00,83.00
4.777010,-0.010000,-0.922000,0.415000,2.060000,-4.860000,-0.700000,0.000000,0.000000,0.00,0.00,83.00
4.777010,-0.010000,-0.925000,0.417000,2.170000,-4.930000,-0.770000,0.000000,0.000000,0.00,0.00,83.00
4.777010,-0.011000,-0.924000,0.416000,2.130000,-4.790000,-0.660000,0.000000,0.000000,0.00,0.00,83.00
4.777010,-0.009000,-0.925000,0.418000,2.240000,-4.830000,-0.590000,0.000000,0.000000,0.00,0.00,83.00
4.836868,-0.009000,-0.925000,0.415000,2.200000,-4.970000,-0.660000,0.000000,0.000000,0.00,0.00,83.00
4.836868,-0.010000,-0.927000,0.416000,1.990000,-4.690000,-0.560000,0.000000,0.000000,0.00,0.00,83.00
4.836868,-0.009000,-0.926000,0.417000,1.920000,-4.690000,-0.520000,0.000000,0.000000,0.00,0.00,83.00
4.836868,-0.009000,-0.925000,0.415000,1.990000,-4.690000,-0.520000,0.000000,0.000000,0.00,0.00,83.00
4.836868,-0.010000,-0.927000,0.416000,1.990000,-4.650000,-0.450000,0.000000,0.000000,0.00,0.00,83.00
4.836868,-0.011000,-0.925000,0.417000,1.990000,-4.690000,-0.490000,0.000000,0.000000,0.00,0.00,83.00
4.836868,-0.011000,-0.923000,0.414000,2.060000,-4.690000,-0.520000,0.000000,0.000000,0.00,0.00,83.00
4.836868,-0.011000,-0.925000,0.418000,2.200000,-4.790000,-0.630000,0.000000,0.000000,0.00,0.00,83.00
4.836868,-0.008000,-0.927000,0.417000,2.100000,-4.760000,-0.770000,0.000000,0.000000,0.00,0.00,83.00
4.838462,-0.011000,-0.923000,0.416000,2.100000,-4.790000,-0.700000,0.000000,0.000000,0.00,0.00,83.00
4.838462,-0.010000,-0.926000,0.417000,2.170000,-4.720000,-0.590000,0.000000,0.000000,0.00,0.00,83.00
4.838462,-0.011000,-0.924000,0.415000,2.270000,-4.970000,-0.700000,0.000000,0.000000,0.00,0.00,83.00
4.838462,-0.010000,-0.923000,0.415000,2.130000,-4.760000,-0.730000,0.000000,0.000000,0.00,0.00,83.00
4.838462,-0.007000,-0.924000,0.416000,2.170000,-4.690000,-0.450000,0.000000,0.000000,0.00,0.00,83.00
4.838462,-0.010000,-0.924000,0.417000,2.240000,-4.900000,-0.660000,0.000000,0.000000,0.00,0.00,83.00
4.838462,-0.009000,-0.926000,0.418000,2.170000,-4.860000,-0.660000,0.000000,0.000000,0.00,0.00,83.00
4.838462,-0.010000,-0.924000,0.415000,2.170000,-4.720000,-0.630000,0.000000,0.000000,0.00,0.00,83.00
4.838462,-0.010000,-0.924000,0.416000,2.340000,-4.830000,-0.660000,0.000000,0.000000,0.00,0.00,83.00
4.896608,-0.009000,-0.925000,0.416000,2.200000,-4.860000,-0.660000,0.000000,0.000000,0.00,0.00,83.00
4.896608,-0.009000,-0.925000,0.419000,2.130000,-4.760000,-0.660000,0.000000,0.000000,0.00,0.00,83.00
4.896608,-0.008000,-0.925000,0.418000,2.100000,-4.760000,-0.560000,0.000000,0.000000,0.00,0.00,83.00
4.896608,-0.010000,-0.927000,0.415000,2.130000,-4.900000,-0.560000,0.000000,0.000000,0.00,0.00,83.00
4.896608,-0.011000,-0.925000,0.414000,2.270000,-4.900000,-0.630000,0.000000,0.000000,0.00,0.00,83.00
4.896608,-0.010000,-0.922000,0.414000,2.060000,-4.720000,-0.590000,0.000000,0.000000,0.00,0.00,83.00
4.896608,-0.007000,-0.923000,0.416000,2.200000,-4.860000,-0.660000,0.000000,0.000000,0.00,0.00,83.00
4.896608,-0.009000,-0.923000,0.415000,2.240000,-4.900000,-0.660000,0.000000,0.000000,0.00,0.00,83.00
4.896608,-0.010000,-0.927000,0.416000,2.200000,-4.720000,-0.590000,0.000000,0.000000,0.00,0.00,83.00
4.899359,-0.010000,-0.925000,0.416000,2.270000,-4.690000,-0.520000,0.000000,0.000000,0.00,0.00,83.00
4.899359,-0.009000,-0.925000,0.418000,2.450000,-4.720000,-0.520000,0.000000,0.000000,0.00,0.00,83.00
4.899359,-0.011000,-0.927000,0.417000,2.410000,-4.860000,-0.560000,0.000000,0.000000,0.00,0.00,83.00
4.899359,-0.009000,-0.925000,0.416000,2.270000,-4.580000,-0.450000,0.000000,0.000000,0.00,0.00,83.00
4.899359,-0.009000,-0.925000,0.417000,2.410000,-4.650000,-0.450000,0.000000,0.000000,0.00,0.00,83.00
4.899359,-0.010000,-0.924000,0.418000,2.450000,-4.830000,-0.490000,0.000000,0.000000,0.00,0.00,83.00
4.899359,-0.010000,-0.925000,0.418000,2.170000,-4.690000,-0.450000,0.000000,0.000000,0.00,0.00,83.00
4.899359,-0.011000,-0.924000,0.417000,2.170000,-4.690000,-0.520000,0.000000,0.000000,0.00,0.00,83.00
4.899359,-0.012000,-0.923000,0.416000,2.130000,-4.830000,-0.630000,0.000000,0.000000,0.00,0.00,83.00
5.017023,-0.011000,-0.924000,0.417000,2.100000,-4.900000,-0.770000,0.000000,0.000000,0.00,0.00,83.00
5.017023,-0.011000,-0.924000,0.416000,1.820000,-4.830000,-0.770000,0.000000,0.000000,0.00,0.00,83.00
5.017023,-0.008000,-0.925000,0.416000,1.780000,-4.900000,-0.730000,0.000000,0.000000,0.00,0.00,83.00
5.017023,-0.008000,-0.924000,0.417000,1.680000,-5.000000,-0.770000,0.000000,0.000000,0.00,0.00,83.00
5.017023,-0.008000,-0.924000,0.416000,1.540000,-4.830000,-0.660000,0.000000,0.000000,0.00,0.00,83.00
5.017023,-0.007000,-0.923000,0.418000,1.640000,-4.650000,-0.630000,0.000000,0.000000,0.00,0.00,83.00
5.017023,-0.010000,-0.924000,0.416000,1.610000,-4.930000,-0.730000,0.000000,0.000000,0.00,0.00,83.00
5.017023,-0.010000,-0.927000,0.413000,1.750000,-4.860000,-0.590000,0.000000,0.000000,0.00,0.00,83.00
5.017023,-0.009000,-0.923000,0.413000,1.890000,-4.650000,-0.590000,0.000000,0.000000,0.00,0.00,83.00
5.018516,-0.011000,-0.925000,0.413000,2.060000,-4.930000,-0.560000,0.000000,0.000000,0.00,0.00,83.00
5.018516,-0.009000,-0.925000,0.414000,2.170000,-4.900000,-0.560000,0.000000,0.000000,0.00,0.00,83.00
5.018516,-0.011000,-0.927000,0.414000,2.340000,-4.860000,-0.560000,0.000000,0.000000,0.00,0.00,83.00
5.018516,-0.011000,-0.927000,0.414000,2.480000,-4.790000,-0.490000,0.000000,0.000000,0.00,0.00,83.00
5.018516,-0.009000,-0.926000,0.416000,2.620000,-4.860000,-0.590000,0.000000,0.000000,0.00,0.00,83.00
5.018516,-0.009000,-0.924000,0.417000,2.660000,-4.860000,-0.590000,0.000000,0.000000,0.00,0.00,83.00
5.018516,-0.009000,-0.924000,0.418000,2.520000,-4.720000,-0.490000,0.000000,0.000000,0.00,0.00,83.00
5.018516,-0.010000,-0.925000,0.418000,2.550000,-4.760000,-0.490000,0.000000,0.000000,0.00,0.00,83.00
5.018516,-0.011000,-0.926000,0.418000,2.550000,-4.860000,-0.560000,0.000000,0.000000,0.00,0.00,83.00
5.019706,-0.010000,-0.924000,0.417000,2.450000,-4.830000,-0.630000,0.000000,0.000000,0.00,0.00,83.00
5.019706,-0.011000,-0.920000,0.418000,2.310000,-4.650000,-0.520000,0.000000,0.000000,0.00,0.00,83.00
5.019706,-0.013000,-0.924000,0.416000,2.380000,-4.860000,-0.630000,0.000000,0.000000,0.00,0.00,83.00
5.019706,-0.011000,-0.924000,0.417000,2.060000,-4.970000,-0.700000,0.000000,0.000000,0.00,0.00,83.00
5.019706,-0.010000,-0.921000,0.416000,1.960000,-4.720000,-0.590000,0.000000,0.000000,0.00,0.00,83.00
5.019706,-0.009000,-0.922000,0.417000,2.030000,-4.860000,-0.700000,0.000000,0.000000,0.00,0.00,83.00
5.019706,-0.008000,-0.925000,0.417000,1.990000,-4.930000,-0.770000,0.000000,0.000000,0.00,0.00,83.00
5.019706,-0.009000,-0.923000,0.417000,1.820000,-4.720000,-0.770000,0.000000,0.000000,0.00,0.00,83.00
5.019706,-0.008000,-0.925000,0.416000,1.850000,-4.650000,-0.730000,0.000000,0.000000,0.00,0.00,83.00
5.077140,-0.010000,-0.924000,0.417000,1.990000,-4.830000,-0.660000,0.000000,0.000000,0.00,0.00,83.00
5.077140,-0.010000,-0.924000,0.414000,2.030000,-4.760000,-0.700000,0.000000,0.000000,0.00,0.00,83.00
5.077140,-0.010000,-0.925000,0.414000,1.960000,-4.650000,-0.590000,0.000000,0.000000,0.00,0.00,83.00
5.077140,-0.008000,-0.927000,0.415000,2.130000,-4.580000,-0.490000,0.000000,0.000000,0.00,0.00,83.00
5.077140,-0.012000,-0.924000,0.414000,2.240000,-4.790000,-0.560000,0.000000,0.000000,0.00,0.00,83.00
5.077140,-0.011000,-0.923000,0.415000,2.410000,-4.760000,-0.630000,0.000000,0.000000,0.00,0.00,83.00
5.077140,-0.011000,-0.924000,0.415000,2.410000,-4.720000,-0.590000,0.000000,0.000000,0.00,0.00,83.00
5.077140,-0.010000,-0.923000,0.414000,2.620000,-4.930000,-0.590000,0.000000,0.000000,0.00,0.00,83.00
5.077140,-0.010000,-0.922000,0.415000,2.480000,-4.900000,-0.630000,0.000000,0.000000,0.00,0.00,83.00
5.078859,-0.014000,-0.923000,0.417000,2.340000,-4.830000,-0.630000,0.000000,0.000000,0.00,0.00,83.00
5.078859,-0.007000,-0.923000,0.415000,2.270000,-4.620000,-0.560000,0.000000,0.000000,0.00,0.00,83.00
5.078859,-0.012000,-0.923000,0.416000,2.340000,-4.830000,-0.660000,0.000000,0.000000,0.00,0.00,83.00
5.078859,-0.008000,-0.926000,0.417000,2.200000,-4.760000,-0.560000,0.000000,0.000000,0.00,0.00,83.00
5.078859,-0.007000,-0.922000,0.415000,2.130000,-4.690000,-0.520000,0.000000,0.000000,0.00,0.00,83.00
5.078859,-0.009000,-0.925000,0.417000,2.240000,-4.760000,-0.590000,0.000000,0.000000,0.00,0.00,83.00
5.078859,-0.007000,-0.924000,0.415000,2.200000,-4.830000,-0.560000,0.000000,0.000000,0.00,0.00,83.00
5.078859,-0.011000,-0.923000,0.415000,2.270000,-4.860000,-0.560000,0.000000,0.000000,0.00,0.00,83.00
5.078859,-0.009000,-0.926000,0.415000,2.240000,-4.760000,-0.520000,0.000000,0.000000,0.00,0.00,83.00
5.137172,-0.010000,-0.924000,0.415000,2.380000,-4.970000,-0.700000,0.000000,0.000000,0.00,0.00,83.00
5.137172,-0.007000,-0.926000,0.415000,2.340000,-5.000000,-0.630000,0.000000,0.000000,0.00,0.00,83.00
5.137172,-0.008000,-0.925000,0.414000,2.270000,-4.690000,-0.520000,0.000000,0.000000,0.00,0.00,83.00
5.137172,-0.009000,-0.925000,0.418000,2.310000,-4.830000,-0.560000,0.000000,0.000000,0.00,0.00,83.00
5.137172,-0.008000,-0.925000,0.416000,2.450000,-4.860000,-0.520000,0.000000,0.000000,0.00,0.00,83.00
5.137172,-0.007000,-0.925000,0.416000,2.450000,-4.480000,-0.450000,0.000000,0.000000,0.00,0.00,83.00
5.137172,-0.009000,-0.926000,0.416000,2.480000,-4.550000,-0.350000,0.000000,0.000000,0.00,0.00,83.00
5.137172,-0.011000,-0.924000,0.418000,2.620000,-4.690000,-0.490000,0.000000,0.000000,0.00,0.00,83.00
5.137172,-0.008000,-0.926000,0.417000,2.520000,-4.620000,-0.450000,0.000000,0.000000,0.00,0.00,83.00
5.198328,-0.011000,-0.925000,0.416000,2.480000,-4.580000,-0.450000,0.000000,0.000000,0.00,0.00,83.00
5.198328,-0.015000,-0.926000,0.419000,2.520000,-4.760000,-0.590000,0.000000,0.000000,0.00,0.00,83.00
5.198328,-0.012000,-0.924000,0.418000,2.340000,-4.830000,-0.700000,0.000000,0.000000,0.00,0.00,83.00
5.198328,-0.011000,-0.925000,0.417000,2.200000,-4.790000,-0.700000,0.000000,0.000000,0.00,0.00,83.00
5.198328,-0.010000,-0.925000,0.415000,2.100000,-4.860000,-0.770000,0.000000,0.000000,0.00,0.00,83.00
5.198328,-0.009000,-0.925000,0.415000,1.990000,-4.970000,-0.770000,0.000000,0.000000,0.00,0.00,83.00
5.198328,-0.010000,-0.925000,0.417000,1.920000,-4.900000,-0.840000,0.000000,0.000000,0.00,0.00,83.00
5.198328,-0.012000,-0.926000,0.415000,1.920000,-4.760000,-0.800000,0.000000,0.000000,0.00,0.00,83.00
5.198328,-0.008000,-0.924000,0.415000,1.890000,-4.550000,-0.730000,0.000000,0.000000,0.00,0.00,83.00
5.199383,-0.008000,-0.925000,0.414000,1.920000,-4.860000,-0.770000,0.000000,0.000000,0.00,0.00,83.00
5.199383,-0.011000,-0.926000,0.416000,2.060000,-4.620000,-0.630000,0.000000,0.000000,0.00,0.00,83.00
5.199383,-0.007000,-0.925000,0.415000,2.130000,-4.620000,-0.560000,0.000000,0.000000,0.00,0.00,83.00
5.199383,-0.009000,-0.926000,0.413000,2.340000,-4.860000,-0.560000,0.000000,0.000000,0.00,0.00,83.00
5.199383,-0.013000,-0.925000,0.415000,2.480000,-4.790000,-0.520000,0.000000,0.000000,0.00,0.00,83.00
5.199383,-0.008000,-0.926000,0.418000,2.550000,-4.720000,-0.520000,0.000000,0.000000,0.00,0.00,83.00
5.199383,-0.010000,-0.924000,0.413000,2.590000,-4.650000,-0.490000,0.000000,0.000000,0.00,0.00,83.00
5.199383,-0.009000,-0.923000,0.416000,2.590000,-4.970000,-0.630000,0.000000,0.000000,0.00,0.00,83.00
5.199383,-0.009000,-0.923000,0.416000,2.550000,-4.900000,-0.700000,0.000000,0.000000,0.00,0.00,83.00
5.256697,-0.010000,-0.924000,0.418000,2.590000,-4.760000,-0.590000,0.000000,0.000000,0.00,0.00,83.00
5.256697,-0.010000,-0.923000,0.420000,2.660000,-4.720000,-0.560000,0.000000,0.000000,0.00,0.00,83.00
5.256697,-0.009000,-0.925000,0.417000,2.520000,-4.900000,-0.660000,0.000000,0.000000,0.00,0.00,83.00
5.256697,-0.008000,-0.924000,0.418000,2.340000,-4.830000,-0.660000,0.000000,0.000000,0.00,0.00,83.00
5.256697,-0.010000,-0.924000,0.418000,2.100000,-4.650000,-0.630000,0.000000,0.000000,0.00,0.00,83.00
5.256697,-0.011000,-0.923000,0.415000,2.100000,-4.830000,-0.630000,0.000000,0.000000,0.00,0.00,83.00
5.256697,-0.012000,-0.926000,0.416000,2.060000,-4.900000,-0.700000,0.000000,0.000000,0.00,0.00,83.00
5.256697,-0.010000,-0.924000,0.416000,1.960000,-4.860000,-0.770000,0.000000,0.000000,0.00,0.00,83.00
5.256697,-0.012000,-0.926000,0.416000,2.060000,-5.000000,-0.800000,0.000000,0.000000,0.00,0.00,83.00
5.257936,-0.010000,-0.925000,0.415000,2.100000,-5.110000,-0.840000,0.000000,0.000000,0.00,0.00,83.00
5.257936,-0.011000,-0.927000,0.415000,2.270000,-5.000000,-0.840000,0.000000,0.000000,0.00,0.00,83.00
5.257936,-0.009000,-0.927000,0.416000,2.240000,-4.860000,-0.770000,0.000000,0.000000,0.00,0.00,83.00
5.257936,-0.007000,-0.925000,0.415000,2.450000,-4.860000,-0.730000,0.000000,0.000000,0.00,0.00,83.00
5.257936,-0.010000,-0.926000,0.414000,2.620000,-4.930000,-0.660000,0.000000,0.000000,0.00,0.00,83.00
5.257936,-0.010000,-0.928000,0.414000,2.520000,-4.620000,-0.590000,0.000000,0.000000,0.00,0.00,83.00
5.257936,-0.010000,-0.924000,0.416000,2.730000,-4.690000,-0.560000,0.000000,0.000000,0.00,0.00,83.00
5.257936,-0.008000,-0.924000,0.416000,2.900000,-4.790000,-0.590000,0.000000,0.000000,0.00,0.00,83.00
5.257936,-0.009000,-0.923000,0.417000,2.800000,-4.690000,-0.520000,0.000000,0.000000,0.00,0.00,83.00
5.316627,-0.010000,-0.924000,0.418000,2.870000,-4.510000,-0.490000,0.000000,0.000000,0.00,0.00,83.00
5.316627,-0.010000,-0.923000,0.416000,2.870000,-4.720000,-0.520000,0.000000,0.000000,0.00,0.00,83.00
5.316627,-0.012000,-0.925000,0.420000,2.760000,-4.720000,-0.560000,0.000000,0.000000,0.00,0.00,83.00
5.316627,-0.012000,-0.926000,0.421000,2.730000,-4.620000,-0.590000,0.000000,0.000000,0.00,0.00,83.00
5.316627,-0.010000,-0.924000,0.418000,2.620000,-4.550000,-0.630000,0.000000,0.000000,0.00,0.00,83.00
5.316627,-0.009000,-0.923000,0.419000,2.590000,-4.650000,-0.590000,0.000000,0.000000,0.00,0.00,83.00
5.316627,-0.009000,-0.923000,0.418000,2.380000,-4.760000,-0.700000,0.000000,0.000000,0.00,0.00,83.00
5.316627,-0.010000,-0.923000,0.419000,2.030000,-4.650000,-0.660000,0.000000,0.000000,0.00,0.00,83.00
5.316627,-0.008000,-0.923000,0.418000,1.850000,-4.760000,-0.700000,0.000000,0.000000,0.00,0.00,83.00
5.377641,-0.011000,-0.922000,0.416000,1.780000,-4.900000,-0.870000,0.000000,0.000000,0.00,0.00,83.00
5.377641,-0.008000,-0.922000,0.417000,1.570000,-4.760000,-0.800000,0.000000,0.000000,0.00,0.00,83.00
5.377641,-0.009000,-0.923000,0.417000,1.430000,-4.790000,-0.730000,0.000000,0.000000,0.00,0.00,83.00
5.377641,-0.010000,-0.922000,0.414000,1.610000,-4.970000,-0.840000,0.000000,0.000000,0.00,0.00,83.00
5.377641,-0.008000,-0.925000,0.415000,1.610000,-4.900000,-0.730000,0.000000,0.000000,0.00,0.00,83.00
5.377641,-0.010000,-0.926000,0.413000,1.610000,-4.830000,-0.700000,0.000000,0.000000,0.00,0.00,83.00
5.377641,-0.010000,-0.925000,0.416000,1.820000,-4.970000,-0.700000,0.000000,0.000000,0.00,0.00,83.00
5.377641,-0.008000,-0.926000,0.414000,1.920000,-4.900000,-0.660000,0.000000,0.000000,0.00,0.00,83.00
5.377641,-0.010000,-0.926000,0.413000,2.100000,-4.790000,-0.630000,0.000000,0.000000,0.00,0.00,83.00
5.437071,-0.011000,-0.923000,0.414000,2.270000,-4.690000,-0.590000,0.000000,0.000000,0.00,0.00,83.00
5.437071,-0.011000,-0.924000,0.415000,2.410000,-4.930000,-0.520000,0.000000,0.000000,0.00,0.00,83.00
5.437071,-0.011000,-0.926000,0.415000,2.660000,-4.900000,-0.520000,0.000000,0.000000,0.00,0.00,83.00
5.437071,-0.010000,-0.925000,0.416000,2.620000,-4.620000,-0.420000,0.000000,0.000000,0.00,0.00,83.00
5.437071,-0.011000,-0.924000,0.415000,2.590000,-4.790000,-0.490000,0.000000,0.000000,0.00,0.00,83.00
5.437071,-0.011000,-0.923000,0.416000,2.660000,-4.970000,-0.490000,0.000000,0.000000,0.00,0.00,83.00
5.437071,-0.010000,-0.922000,0.417000,2.520000,-4.650000,-0.490000,0.000000,0.000000,0.00,0.00,83.00
5.437071,-0.010000,-0.925000,0.418000,2.520000,-4.650000,-0.450000,0.000000,0.000000,0.00,0.00,83.00
5.437071,-0.012000,-0.924000,0.418000,2.380000,-4.830000,-0.490000,0.000000,0.000000,0.00,0.00,83.00
5.439058,-0.008000,-0.924000,0.417000,2.170000,-4.860000,-0.560000,0.000000,0.000000,0.00,0.00,83.00
5.439058,-0.011000,-0.923000,0.417000,2.060000,-4.760000,-0.590000,0.000000,0.000000,0.00,0.00,83.00
5.439058,-0.008000,-0.925000,0.416000,1.920000,-4.860000,-0.630000,0.000000,0.000000,0.00,0.00,83.00
5.439058,-0.010000,-0.927000,0.417000,1.920000,-4.830000,-0.630000,0.000000,0.000000,0.00,0.00,83.00
5.439058,-0.011000,-0.923000,0.418000,1.780000,-4.580000,-0.700000,0.000000,0.000000,0.00,0.00,83.00
5.439058,-0.010000,-0.924000,0.415000,1.640000,-4.650000,-0.630000,0.000000,0.000000,0.00,0.00,83.00
5.439058,-0.010000,-0.924000,0.414000,1.570000,-4.900000,-0.770000,0.000000,0.000000,0.00,0.00,83.00
5.439058,-0.009000,-0.924000,0.416000,1.680000,-4.900000,-0.730000,0.000000,0.000000,0.00,0.00,83.00
5.439058,-0.009000,-0.924000,0.416000,1.780000,-4.830000,-0.730000,0.000000,0.000000,0.00,0.00,83.00
5.439970,-0.010000,-0.924000,0.413000,1.820000,-4.790000,-0.630000,0.000000,0.000000,0.00,0.00,83.00
5.439970,-0.009000,-0.927000,0.415000,1.920000,-5.040000,-0.700000,0.000000,0.000000,0.00,0.00,83.00
5.439970,-0.008000,-0.924000,0.414000,1.990000,-4.790000,-0.560000,0.000000,0.000000,0.00,0.00,83.00
5.439970,-0.007000,-0.923000,0.412000,2.240000,-4.550000,-0.420000,0.000000,0.000000,0.00,0.00,83.00
5.439970,-0.010000,-0.925000,0.413000,2.450000,-4.790000,-0.560000,0.000000,0.000000,0.00,0.00,83.00
5.439970,-0.010000,-0.925000,0.416000,2.480000,-4.760000,-0.450000,0.000000,0.000000,0.00,0.00,83.00
5.439970,-0.008000,-0.926000,0.414000,2.620000,-4.580000,-0.420000,0.000000,0.000000,0.00,0.00,83.00
5.439970,-0.009000,-0.927000,0.418000,2.800000,-4.790000,-0.420000,0.000000,0.000000,0.00,0.00,83.00
5.439970,-0.010000,-0.927000,0.417000,2.730000,-4.830000,-0.380000,0.000000,0.000000,0.00,0.00,83.00
5.497490,-0.008000,-0.925000,0.416000,2.620000,-4.790000,-0.420000,0.000000,0.000000,0.00,0.00,83.00
5.497490,-0.011000,-0.928000,0.418000,2.660000,-5.000000,-0.450000,0.000000,0.000000,0.00,0.00,83.00
5.497490,-0.010000,-0.925000,0.417000,2.830000,-5.110000,-0.520000,0.000000,0.000000,0.00,0.00,83.00
5.497490,-0.008000,-0.922000,0.417000,2.620000,-4.970000,-0.520000,0.000000,0.000000,0.00,0.00,83.00
5.497490,-0.010000,-0.923000,0.418000,2.590000,-4.830000,-0.490000,0.000000,0.000000,0.00,0.00,83.00
5.497490,-0.010000,-0.923000,0.417000,2.450000,-5.000000,-0.560000,0.000000,0.000000,0.00,0.00,83.00
5.497490,-0.007000,-0.921000,0.416000,2.270000,-4.930000,-0.630000,0.000000,0.000000,0.00,0.00,83.00
5.497490,-0.008000,-0.922000,0.418000,2.130000,-4.790000,-0.630000,0.000000,0.000000,0.00,0.00,83.00
5.497490,-0.009000,-0.923000,0.417000,2.030000,-4.720000,-0.490000,0.000000,0.000000,0.00,0.00,83.00
5.617025,-0.011000,-0.924000,0.417000,1.890000,-4.970000,-0.560000,0.000000,0.000000,0.00,0.00,83.00
5.617025,-0.010000,-0.925000,0.418000,1.680000,-4.900000,-0.560000,0.000000,0.000000,0.00,0.00,83.00
5.617025,-0.009000,-0.923000,0.417000,1.570000,-4.550000,-0.420000,0.000000,0.000000,0.00,0.00,83.00
5.617025,-0.010000,-0.923000,0.415000,1.750000,-4.830000,-0.590000,0.000000,0.000000,0.00,0.00,83.00
5.617025,-0.009000,-0.925000,0.414000,1.820000,-4.930000,-0.630000,0.000000,0.000000,0.00,0.00,83.00
5.617025,-0.009000,-0.924000,0.413000,1.680000,-4.790000,-0.490000,0.000000,0.000000,0.00,0.00,83.00
5.617025,-0.009000,-0.926000,0.417000,1.890000,-4.760000,-0.490000,0.000000,0.000000,0.00,0.00,83.00
5.617025,-0.010000,-0.925000,0.415000,2.030000,-4.860000,-0.520000,0.000000,0.000000,0.00,0.00,83.00
5.617025,-0.008000,-0.924000,0.416000,1.990000,-4.790000,-0.490000,0.000000,0.000000,0.00,0.00,83.00
5.617774,-0.010000,-0.926000,0.415000,2.170000,-4.720000,-0.490000,0.000000,0.000000,0.00,0.00,83.00
5.617774,-0.008000,-0.924000,0.417000,2.380000,-4.620000,-0.350000,0.000000,0.000000,0.00,0.00,83.00
5.617774,-0.011000,-0.925000,0.416000,2.380000,-4.650000,-0.450000,0.000000,0.000000,0.00,0.00,83.00
5.617774,-0.007000,-0.926000,0.415000,2.480000,-4.550000,-0.310000,0.000000,0.000000,0.00,0.00,83.00
5.617774,-0.010000,-0.924000,0.416000,2.480000,-4.480000,-0.280000,0.000000,0.000000,0.00,0.00,83.00
5.617774,-0.008000,-0.924000,0.418000,2.520000,-4.790000,-0.310000,0.000000,0.000000,0.00,0.00,83.00
5.617774,-0.010000,-0.924000,0.416000,2.520000,-4.620000,-0.350000,0.000000,0.000000,0.00,0.00,83.00
5.617774,-0.009000,-0.923000,0.416000,2.340000,-4.550000,-0.280000,0.000000,0.000000,0.00,0.00,83.00
5.617774,-0.011000,-0.925000,0.419000,2.380000,-4.650000,-0.490000,0.000000,0.000000,0.00,0.00,83.00
5.619194,-0.010000,-0.923000,0.418000,2.340000,-4.860000,-0.590000,0.000000,0.000000,0.00,0.00,83.00
5.619194,-0.010000,-0.925000,0.414000,2.060000,-4.690000,-0.630000,0.000000,0.000000,0.00,0.00,83.00
5.619194,-0.010000,-0.926000,0.416000,1.990000,-4.620000,-0.590000,0.000000,0.000000,0.00,0.00,83.00
5.619194,-0.009000,-0.925000,0.416000,2.060000,-4.790000,-0.700000,0.000000,0.000000,0.00,0.00,83.00
5.619194,-0.009000,-0.925000,0.417000,2.030000,-4.720000,-0.660000,0.000000,0.000000,0.00,0.00,83.00
5.619194,-0.007000,-0.927000,0.416000,2.100000,-4.580000,-0.490000,0.000000,0.000000,0.00,0.00,83.00
5.619194,-0.008000,-0.927000,0.416000,2.170000,-4.830000,-0.590000,0.000000,0.000000,0.00,0.00,83.00
5.619194,-0.010000,-0.925000,0.414000,2.270000,-4.690000,-0.520000,0.000000,0.000000,0.00,0.00,83.00
5.619194,-0.009000,-0.925000,0.414000,2.450000,-4.720000,-0.560000,0.000000,0.000000,0.00,0.00,83.00
5.620380,-0.010000,-0.923000,0.415000,2.620000,-4.650000,-0.590000,0.000000,0.000000,0.00,0.00,83.00
5.620380,-0.010000,-0.924000,0.414000,2.800000,-4.790000,-0.590000,0.000000,0.000000,0.00,0.00,83.00
5.620380,-0.009000,-0.926000,0.417000,2.870000,-4.720000,-0.560000,0.000000,0.000000,0.00,0.00,83.00
5.620380,-0.009000,-0.924000,0.416000,2.830000,-4.480000,-0.490000,0.000000,0.000000,0.00,0.00,83.00
5.620380,-0.010000,-0.925000,0.417000,2.940000,-4.790000,-0.590000,0.000000,0.000000,0.00,0.00,83.00
5.620380,-0.010000,-0.922000,0.416000,2.690000,-4.860000,-0.630000,0.000000,0.000000,0.00,0.00,83.00
5.620380,-0.010000,-0.924000,0.417000,2.590000,-4.550000,-0.490000,0.000000,0.000000,0.00,0.00,83.00
5.620380,-0.011000,-0.924000,0.417000,2.550000,-4.620000,-0.560000,0.000000,0.000000,0.00,0.00,83.00
5.620380,-0.011000,-0.924000,0.418000,2.480000,-4.790000,-0.590000,0.000000,0.000000,0.00,0.00,83.00
5.677053,-0.011000,-0.924000,0.419000,2.340000,-4.790000,-0.590000,0.000000,0.000000,0.00,0.00,83.00
5.677053,-0.011000,-0.924000,0.418000,2.170000,-4.760000,-0.520000,0.000000,0.000000,0.00,0.00,83.00
5.677053,-0.011000,-0.925000,0.416000,2.130000,-4.650000,-0.590000,0.000000,0.000000,0.00,0.00,83.00
5.677053,-0.009000,-0.926000,0.419000,1.990000,-4.860000,-0.770000,0.000000,0.000000,0.00,0.00,83.00
5.677053,-0.010000,-0.925000,0.416000,1.990000,-4.550000,-0.660000,0.000000,0.000000,0.00,0.00,83.00
5.677053,-0.011000,-0.922000,0.415000,1.990000,-4.720000,-0.630000,0.000000,0.000000,0.00,0.00,83.00
5.677053,-0.008000,-0.923000,0.416000,2.060000,-4.790000,-0.660000,0.000000,0.000000,0.00,0.00,83.00
5.677053,-0.010000,-0.924000,0.414000,2.060000,-4.720000,-0.590000,0.000000,0.000000,0.00,0.00,83.00
5.677053,-0.009000,-0.923000,0.416000,2.060000,-4.550000,-0.630000,0.000000,0.000000,0.00,0.00,83.00
5.736218,-0.012000,-0.924000,0.416000,2.200000,-4.620000,-0.520000,0.000000,0.000000,0.00,0.00,83.00
5.736218,-0.011000,-0.927000,0.416000,2.200000,-4.690000,-0.660000,0.000000,0.000000,0.00,0.00,83.00
5.736218,-0.009000,-0.926000,0.416000,2.310000,-4.550000,-0.420000,0.000000,0.000000,0.00,0.00,83.00
5.736218,-0.011000,-0.927000,0.417000,2.270000,-4.550000,-0.380000,0.000000,0.000000,0.00,0.00,83.00
5.736218,-0.010000,-0.925000,0.417000,2.380000,-4.760000,-0.520000,0.000000,0.000000,0.00,0.00,83.00
5.736218,-0.010000,-0.924000,0.418000,2.380000,-4.650000,-0.520000,0.000000,0.000000,0.00,0.00,83.00
5.736218,-0.013000,-0.924000,0.417000,2.340000,-4.440000,-0.520000,0.000000,0.000000,0.00,0.00,83.00
5.736218,-0.010000,-0.923000,0.416000,2.520000,-4.790000,-0.660000,0.000000,0.000000,0.00,0.00,83.00
5.736218,-0.010000,-0.924000,0.419000,2.520000,-4.790000,-0.660000,0.000000,0.000000,0.00,0.00,83.00
5.738143,-0.010000,-0.924000,0.417000,2.410000,-4.620000,-0.560000,0.000000,0.000000,0.00,0.00,83.00
5.738143,-0.010000,-0.924000,0.417000,2.550000,-4.860000,-0.700000,0.000000,0.000000,0.00,0.00,83.00
5.738143,-0.010000,-0.923000,0.417000,2.480000,-4.760000,-0.730000,0.000000,0.000000,0.00,0.00,83.00
5.738143,-0.010000,-0.924000,0.417000,2.380000,-4.690000,-0.730000,0.000000,0.000000,0.00,0.00,83.00
5.738143,-0.010000,-0.924000,0.417000,2.240000,-4.620000,-0.660000,0.000000,0.000000,0.00,0.00,83.00
5.738143,-0.010000,-0.923000,0.415000,2.200000,-4.650000,-0.660000,0.000000,0.000000,0.00,0.00,83.00
5.738143,-0.011000,-0.923000,0.417000,2.240000,-4.550000,-0.560000,0.000000,0.000000,0.00,0.00,83.00
5.738143,-0.011000,-0.926000,0.416000,2.130000,-4.510000,-0.560000,0.000000,0.000000,0.00,0.00,83.00
5.738143,-0.011000,-0.929000,0.418000,2.410000,-4.580000,-0.560000,0.000000,0.000000,0.00,0.00,83.00
5.796999,-0.012000,-0.925000,0.415000,2.520000,-4.620000,-0.730000,0.000000,0.000000,0.00,0.00,83.00
5.796999,-0.009000,-0.924000,0.414000,2.800000,-4.650000,-0.840000,0.000000,0.000000,0.00,0.00,83.00
5.796999,-0.011000,-0.920000,0.415000,2.620000,-4.550000,-0.800000,0.000000,0.000000,0.00,0.00,83.00
5.796999,-0.007000,-0.917000,0.411000,2.450000,-4.930000,-0.870000,0.000000,0.000000,0.00,0.00,83.00
5.796999,-0.009000,-0.912000,0.410000,2.410000,-5.250000,-0.910000,0.000000,0.000000,0.00,0.00,83.00
5.796999,-0.010000,-0.913000,0.411000,2.100000,-4.970000,-0.940000,0.000000,0.000000,0.00,0.00,83.00
5.796999,-0.008000,-0.918000,0.411000,2.060000,-5.140000,-0.910000,0.000000,0.000000,0.00,0.00,83.00
5.796999,-0.006000,-0.922000,0.413000,2.130000,-5.180000,-1.010000,0.000000,0.000000,0.00,0.00,83.00
5.796999,-0.006000,-0.927000,0.416000,2.060000,-4.930000,-0.940000,0.000000,0.000000,0.00,0.00,83.00
5.798584,-0.003000,-0.930000,0.419000,2.240000,-4.580000,-0.590000,0.000000,0.000000,0.00,0.00,83.00
5.798584,-0.002000,-0.934000,0.418000,2.200000,-4.370000,-0.070000,0.000000,0.000000,0.00,0.00,83.00
5.798584,-0.004000,-0.933000,0.421000,2.380000,-4.160000,0.240000,0.000000,0.000000,0.00,0.00,83.00
5.798584,-0.010000,-0.934000,0.418000,2.520000,-4.060000,0.660000,0.000000,0.000000,0.00,0.00,83.00
5.798584,-0.013000,-0.932000,0.418000,2.900000,-4.130000,0.730000,0.000000,0.000000,0.00,0.00,83.00
5.798584,-0.016000,-0.931000,0.419000,3.250000,-4.480000,0.490000,0.000000,0.000000,0.00,0.00,83.00
5.798584,-0.019000,-0.927000,0.420000,3.710000,-4.650000,0.140000,0.000000,0.000000,0.00,0.00,83.00
5.798584,-0.016000,-0.926000,0.421000,3.740000,-4.690000,-0.140000,0.000000,0.000000,0.00,0.00,83.00
5.798584,-0.011000,-0.923000,0.422000,3.810000,-5.110000,-0.350000,0.000000,0.000000,0.00,0.00,83.00
5.856637,-0.012000,-0.919000,0.423000,3.360000,-5.140000,-0.490000,0.000000,0.000000,0.00,0.00,83.00
5.856637,-0.011000,-0.918000,0.424000,2.590000,-5.040000,-0.560000,0.000000,0.000000,0.00,0.00,83.00
5.856637,-0.009000,-0.916000,0.419000,1.750000,-4.860000,-0.730000,0.000000,0.000000,0.00,0.00,83.00
5.856637,-0.011000,-0.916000,0.421000,1.430000,-5.040000,-0.840000,0.000000,0.000000,0.00,0.00,83.00
5.856637,-0.012000,-0.915000,0.420000,0.700000,-4.930000,-0.840000,0.000000,0.000000,0.00,0.00,83.00
5.856637,-0.010000,-0.919000,0.417000,0.210000,-4.620000,-1.050000,0.000000,0.000000,0.00,0.00,83.00
5.856637,-0.010000,-0.923000,0.417000,0.170000,-4.690000,-1.010000,0.000000,0.000000,0.00,0.00,83.00
5.856637,-0.010000,-0.928000,0.415000,0.100000,-4.720000,-0.870000,0.000000,0.000000,0.00,0.00,83.00
5.856637,-0.008000,-0.933000,0.414000,0.380000,-4.480000,-0.770000,0.000000,0.000000,0.00,0.00,83.00
5.916715,-0.009000,-0.934000,0.411000,0.770000,-4.550000,-0.660000,0.000000,0.000000,0.00,0.00,83.00
5.916715,-0.010000,-0.934000,0.412000,1.500000,-4.720000,-0.560000,0.000000,0.000000,0.00,0.00,83.00
5.916715,-0.009000,-0.930000,0.411000,2.240000,-4.790000,-0.520000,0.000000,0.000000,0.00,0.00,83.00
5.916715,-0.012000,-0.927000,0.412000,2.620000,-4.720000,-0.380000,0.000000,0.000000,0.00,0.00,83.00
5.916715,-0.010000,-0.925000,0.410000,3.530000,-4.930000,-0.380000,0.000000,0.000000,0.00,0.00,83.00
5.916715,-0.012000,-0.923000,0.411000,4.160000,-5.110000,-0.420000,0.000000,0.000000,0.00,0.00,83.00
5.916715,-0.013000,-0.921000,0.415000,4.160000,-4.860000,-0.380000,0.000000,0.000000,0.00,0.00,83.00
5.916715,-0.011000,-0.922000,0.416000,4.410000,-4.860000,-0.310000,0.000000,0.000000,0.00,0.00,83.00
5.916715,-0.009000,-0.922000,0.420000,4.230000,-4.860000,-0.380000,0.000000,0.000000,0.00,0.00,83.00
5.918054,-0.010000,-0.921000,0.425000,3.850000,-4.650000,-0.310000,0.000000,0.000000,0.00,0.00,83.00
5.918054,-0.010000,-0.921000,0.424000,3.290000,-4.410000,-0.170000,0.000000,0.000000,0.00,0.00,83.00
5.918054,-0.012000,-0.922000,0.423000,2.450000,-4.440000,-0.140000,0.000000,0.000000,0.00,0.00,83.00
5.918054,-0.011000,-0.923000,0.424000,2.060000,-4.340000,-0.240000,0.000000,0.000000,0.00,0.00,83.00
5.918054,-0.012000,-0.923000,0.422000,1.400000,-4.440000,-0.350000,0.000000,0.000000,0.00,0.00,83.00
5.918054,-0.015000,-0.923000,0.419000,0.800000,-4.550000,-0.590000,0.000000,0.000000,0.00,0.00,83.00
5.918054,-0.012000,-0.924000,0.416000,0.520000,-4.830000,-0.840000,0.000000,0.000000,0.00,0.00,83.00
5.918054,-0.012000,-0.924000,0.416000,0.520000,-4.900000,-1.010000,0.000000,0.000000,0.00,0.00,83.00
5.918054,-0.012000,-0.923000,0.413000,0.420000,-4.970000,-1.190000,0.000000,0.000000,0.00,0.00,83.00
5.976857,-0.009000,-0.924000,0.413000,0.800000,-5.070000,-1.260000,0.000000,0.000000,0.00,0.00,83.00
5.976857,-0.006000,-0.924000,0.413000,1.050000,-5.210000,-1.220000,0.000000,0.000000,0.00,0.00,83.00
5.976857,-0.006000,-0.927000,0.415000,1.430000,-4.970000,-0.940000,0.000000,0.000000,0.00,0.00,83.00
5.976857,-0.005000,-0.928000,0.414000,1.890000,-4.650000,-0.660000,0.000000,0.000000,0.00,0.00,83.00
5.976857,-0.007000,-0.927000,0.414000,2.310000,-4.790000,-0.560000,0.000000,0.000000,0.00,0.00,83.00
5.976857,-0.008000,-0.926000,0.413000,2.730000,-4.550000,-0.380000,0.000000,0.000000,0.00,0.00,83.00
5.976857,-0.010000,-0.927000,0.411000,3.180000,-4.370000,-0.100000,0.000000,0.000000,0.00,0.00,83.00
5.976857,-0.010000,-0.924000,0.414000,3.430000,-4.510000,-0.140000,0.000000,0.000000,0.00,0.00,83.00
5.976857,-0.012000,-0.925000,0.416000,3.640000,-4.550000,-0.100000,0.000000,0.000000,0.00,0.00,83.00
5.978243,-0.012000,-0.928000,0.418000,3.740000,-4.720000,-0.140000,0.000000,0.000000,0.00,0.00,83.00
5.978243,-0.010000,-0.926000,0.419000,3.810000,-4.760000,-0.210000,0.000000,0.000000,0.00,0.00,83.00
5.978243,-0.010000,-0.923000,0.421000,3.500000,-4.860000,-0.350000,0.000000,0.000000,0.00,0.00,83.00
5.978243,-0.011000,-0.921000,0.420000,3.180000,-5.110000,-0.450000,0.000000,0.000000,0.00,0.00,83.00
5.978243,-0.012000,-0.921000,0.422000,2.830000,-4.900000,-0.380000,0.000000,0.000000,0.00,0.00,83.00
5.978243,-0.009000,-0.919000,0.420000,2.480000,-4.900000,-0.520000,0.000000,0.000000,0.00,0.00,83.00
5.978243,-0.012000,-0.920000,0.421000,1.990000,-4.900000,-0.590000,0.000000,0.000000,0.00,0.00,83.00
5.978243,-0.010000,-0.922000,0.419000,1.710000,-4.620000,-0.630000,0.000000,0.000000,0.00,0.00,83.00
5.978243,-0.011000,-0.921000,0.421000,1.360000,-4.550000,-0.660000,0.000000,0.000000,0.00,0.00,83.00
6.036370,-0.011000,-0.922000,0.417000,1.080000,-4.720000,-0.730000,0.000000,0.000000,0.00,0.00,83.00
6.036370,-0.010000,-0.923000,0.416000,1.150000,-4.720000,-0.840000,0.000000,0.000000,0.00,0.00,83.00
6.036370,-0.011000,-0.925000,0.415000,0.980000,-4.480000,-0.730000,0.000000,0.000000,0.00,0.00,83.00
6.036370,-0.010000,-0.926000,0.414000,1.150000,-4.790000,-0.800000,0.000000,0.000000,0.00,0.00,83.00
6.036370,-0.009000,-0.928000,0.416000,1.470000,-4.970000,-0.840000,0.000000,0.000000,0.00,0.00,83.00
6.036370,-0.012000,-0.927000,0.413000,1.610000,-4.760000,-0.840000,0.000000,0.000000,0.00,0.00,83.00
6.036370,-0.008000,-0.929000,0.415000,1.960000,-4.790000,-0.840000,0.000000,0.000000,0.00,0.00,83.00
6.036370,-0.009000,-0.927000,0.413000,2.310000,-4.900000,-0.630000,0.000000,0.000000,0.00,0.00,83.00
6.036370,-0.011000,-0.927000,0.415000,2.410000,-4.860000,-0.560000,0.000000,0.000000,0.00,0.00,83.00
6.096835,-0.008000,-0.927000,0.414000,2.760000,-4.580000,-0.350000,0.000000,0.000000,0.00,0.00,83.00
6.096835,-0.011000,-0.925000,0.415000,3.040000,-4.650000,-0.280000,0.000000,0.000000,0.00,0.00,83.00
6.096835,-0.010000,-0.926000,0.416000,3.010000,-4.760000,-0.350000,0.000000,0.000000,0.00,0.00,83.00
6.096835,-0.010000,-0.923000,0.417000,3.180000,-4.510000,-0.310000,0.000000,0.000000,0.00,0.00,83.00
6.096835,-0.011000,-0.923000,0.420000,3.080000,-4.510000,-0.280000,0.000000,0.000000,0.00,0.00,83.00
6.096835,-0.012000,-0.923000,0.418000,3.110000,-4.830000,-0.380000,0.000000,0.000000,0.00,0.00,83.00
6.096835,-0.012000,-0.922000,0.418000,2.900000,-4.760000,-0.450000,0.000000,0.000000,0.00,0.00,83.00
6.096835,-0.012000,-0.923000,0.420000,2.480000,-4.860000,-0.520000,0.000000,0.000000,0.00,0.00,83.00
6.096835,-0.013000,-0.922000,0.420000,2.520000,-4.970000,-0.630000,0.000000,0.000000,0.00,0.00,83.00
6.098266,-0.011000,-0.924000,0.419000,2.240000,-5.000000,-0.730000,0.000000,0.000000,0.00,0.00,83.00
6.098266,-0.008000,-0.925000,0.418000,1.990000,-4.900000,-0.770000,0.000000,0.000000,0.00,0.00,83.00
6.098266,-0.010000,-0.923000,0.419000,1.820000,-4.930000,-0.770000,0.000000,0.000000,0.00,0.00,83.00
6.098266,-0.011000,-0.925000,0.419000,1.750000,-5.000000,-0.770000,0.000000,0.000000,0.00,0.00,83.00
6.098266,-0.010000,-0.924000,0.417000,1.680000,-5.040000,-0.590000,0.000000,0.000000,0.00,0.00,83.00
6.098266,-0.011000,-0.924000,0.415000,1.680000,-4.720000,-0.700000,0.000000,0.000000,0.00,0.00,83.00
6.098266,-0.010000,-0.923000,0.417000,1.750000,-4.790000,-0.700000,0.000000,0.000000,0.00,0.00,83.00
6.098266,-0.009000,-0.926000,0.415000,1.920000,-4.930000,-0.660000,0.000000,0.000000,0.00,0.00,83.00
6.098266,-0.011000,-0.925000,0.416000,2.030000,-4.830000,-0.630000,0.000000,0.000000,0.00,0.00,83.00
6.996508,-0.008000,-0.926000,0.417000,2.200000,-4.760000,-0.590000,0.000000,0.000000,0.00,0.00,83.00
6.996508,-0.010000,-0.925000,0.417000,2.550000,-4.860000,-0.560000,0.000000,0.000000,0.00,0.00,83.00
6.996508,-0.011000,-0.925000,0.415000,2.730000,-4.930000,-0.660000,0.000000,0.000000,0.00,0.00,83.00
6.996508,-0.010000,-0.925000,0.418000,2.620000,-4.620000,-0.450000,0.000000,0.000000,0.00,0.00,83.00
6.996508,-0.010000,-0.923000,0.417000,2.730000,-4.830000,-0.520000,0.000000,0.000000,0.00,0.00,83.00
6.996508,-0.012000,-0.924000,0.418000,2.760000,-4.900000,-0.590000,0.000000,0.000000,0.00,0.00,83.00
6.996508,-0.010000,-0.923000,0.418000,2.410000,-4.760000,-0.520000,0.000000,0.000000,0.00,0.00,83.00
6.996508,-0.010000,-0.922000,0.420000,2.340000,-4.790000,-0.560000,0.000000,0.000000,0.00,0.00,83.00
6.996508,-0.012000,-0.924000,0.419000,2.200000,-4.830000,-0.520000,0.000000,0.000000,0.00,0.00,83.00
6.997557,-0.011000,-0.922000,0.419000,1.990000,-4.900000,-0.630000,0.000000,0.000000,0.00,0.00,83.00
6.997557,-0.012000,-0.923000,0.418000,1.710000,-4.690000,-0.590000,0.000000,0.000000,0.00,0.00,83.00
6.997557,-0.010000,-0.923000,0.417000,1.680000,-4.790000,-0.660000,0.000000,0.000000,0.00,0.00,83.00
6.997557,-0.011000,-0.924000,0.417000,1.640000,-4.930000,-0.700000,0.000000,0.000000,0.00,0.00,83.00
6.997557,-0.010000,-0.923000,0.419000,1.540000,-4.830000,-0.730000,0.000000,0.000000,0.00,0.00,83.00
6.997557,-0.011000,-0.926000,0.415000,1.540000,-4.620000,-0.700000,0.000000,0.000000,0.00,0.00,83.00
6.997557,-0.011000,-0.925000,0.415000,1.750000,-5.000000,-0.730000,0.000000,0.000000,0.00,0.00,83.00
6.997557,-0.010000,-0.925000,0.414000,1.850000,-4.830000,-0.730000,0.000000,0.000000,0.00,0.00,83.00
6.997557,-0.010000,-0.926000,0.414000,2.030000,-4.650000,-0.630000,0.000000,0.000000,0.00,0.00,83.00
6.998625,-0.009000,-0.924000,0.419000,2.270000,-4.620000,-0.560000,0.000000,0.000000,0.00,0.00,83.00
6.998625,-0.009000,-0.925000,0.414000,2.410000,-4.930000,-0.630000,0.000000,0.000000,0.00,0.00,83.00
6.998625,-0.010000,-0.923000,0.415000,2.450000,-4.830000,-0.590000,0.000000,0.000000,0.00,0.00,83.00
6.998625,-0.012000,-0.925000,0.417000,2.520000,-4.620000,-0.520000,0.000000,0.000000,0.00,0.00,83.00
6.998625,-0.012000,-0.924000,0.415000,2.590000,-4.860000,-0.590000,0.000000,0.000000,0.00,0.00,83.00
6.998625,-0.007000,-0.924000,0.417000,2.660000,-4.930000,-0.560000,0.000000,0.000000,0.00,0.00,83.00
6.998625,-0.008000,-0.925000,0.417000,2.450000,-4.860000,-0.490000,0.000000,0.000000,0.00,0.00,83.00
6.998625,-0.012000,-0.923000,0.418000,2.520000,-4.830000,-0.450000,0.000000,0.000000,0.00,0.00,83.00
6.998625,-0.011000,-0.923000,0.419000,2.520000,-4.970000,-0.520000,0.000000,0.000000,0.00,0.00,83.00
7.000093,-0.011000,-0.923000,0.417000,2.480000,-4.860000,-0.520000,0.000000,0.000000,0.00,0.00,83.00
7.000093,-0.010000,-0.924000,0.415000,2.410000,-4.760000,-0.490000,0.000000,0.000000,0.00,0.00,83.00
7.000093,-0.012000,-0.922000,0.417000,2.410000,-5.000000,-0.590000,0.000000,0.000000,0.00,0.00,83.00
7.000093,-0.012000,-0.924000,0.420000,2.240000,-5.040000,-0.700000,0.000000,0.000000,0.00,0.00,83.00
7.000093,-0.009000,-0.922000,0.418000,2.130000,-4.790000,-0.630000,0.000000,0.000000,0.00,0.00,83.00
7.000093,-0.010000,-0.924000,0.419000,1.990000,-4.860000,-0.560000,0.000000,0.000000,0.00,0.00,83.00
7.000093,-0.011000,-0.924000,0.419000,1.960000,-5.000000,-0.590000,0.000000,0.000000,0.00,0.00,83.00
7.000093,-0.008000,-0.922000,0.417000,1.780000,-4.720000,-0.590000,0.000000,0.000000,0.00,0.00,83.00
7.000093,-0.012000,-0.921000,0.415000,1.710000,-4.830000,-0.630000,0.000000,0.000000,0.00,0.00,83.00
7.001200,-0.011000,-0.925000,0.417000,1.850000,-4.860000,-0.700000,0.000000,0.000000,0.00,0.00,83.00
7.001200,-0.010000,-0.924000,0.417000,1.780000,-4.830000,-0.660000,0.000000,0.000000,0.00,0.00,83.00
7.001200,-0.009000,-0.926000,0.418000,1.920000,-4.760000,-0.590000,0.000000,0.000000,0.00,0.00,83.00
7.001200,-0.010000,-0.926000,0.419000,1.990000,-4.720000,-0.660000,0.000000,0.000000,0.00,0.00,83.00
7.001200,-0.009000,-0.927000,0.417000,2.170000,-4.760000,-0.590000,0.000000,0.000000,0.00,0.00,83.00
7.001200,-0.009000,-0.926000,0.418000,2.170000,-4.720000,-0.630000,0.000000,0.000000,0.00,0.00,83.00
7.001200,-0.010000,-0.927000,0.417000,2.270000,-4.720000,-0.660000,0.000000,0.000000,0.00,0.00,83.00
7.001200,-0.009000,-0.926000,0.416000,2.310000,-4.830000,-0.590000,0.000000,0.000000,0.00,0.00,83.00
7.001200,-0.010000,-0.924000,0.419000,2.410000,-4.970000,-0.660000,0.000000,0.000000,0.00,0.00,83.00
7.002522,-0.010000,-0.922000,0.415000,2.200000,-4.930000,-0.800000,0.000000,0.000000,0.00,0.00,83.00
7.002522,-0.009000,-0.924000,0.417000,2.060000,-4.860000,-0.770000,0.000000,0.000000,0.00,0.00,83.00
7.002522,-0.010000,-0.924000,0.420000,2.100000,-5.110000,-0.870000,0.000000,0.000000,0.00,0.00,83.00
7.002522,-0.010000,-0.923000,0.417000,1.920000,-5.040000,-0.910000,0.000000,0.000000,0.00,0.00,83.00
7.002522,-0.010000,-0.924000,0.416000,1.680000,-4.970000,-0.800000,0.000000,0.000000,0.00,0.00,83.00
7.002522,-0.011000,-0.924000,0.416000,1.750000,-4.970000,-0.800000,0.000000,0.000000,0.00,0.00,83.00
7.002522,-0.009000,-0.925000,0.416000,1.680000,-4.930000,-0.730000,0.000000,0.000000,0.00,0.00,83.00
7.002522,-0.009000,-0.922000,0.418000,1.610000,-4.830000,-0.730000,0.000000,0.000000,0.00,0.00,83.00
7.002522,-0.009000,-0.926000,0.416000,1.680000,-4.830000,-0.730000,0.000000,0.000000,0.00,0.00,83.00
7.003440,-0.008000,-0.926000,0.417000,1.850000,-4.690000,-0.590000,0.000000,0.000000,0.00,0.00,83.00
7.003440,-0.009000,-0.924000,0.415000,1.960000,-4.720000,-0.490000,0.000000,0.000000,0.00,0.00,83.00
7.003440,-0.009000,-0.925000,0.415000,2.030000,-4.830000,-0.450000,0.000000,0.000000,0.00,0.00,83.00
7.003440,-0.012000,-0.928000,0.416000,1.920000,-4.720000,-0.520000,0.000000,0.000000,0.00,0.00,83.00
7.003440,-0.011000,-0.924000,0.415000,2.060000,-4.830000,-0.420000,0.000000,0.000000,0.00,0.00,83.00
7.003440,-0.012000,-0.926000,0.417000,1.920000,-4.650000,-0.560000,0.000000,0.000000,0.00,0.00,83.00
7.003440,-0.012000,-0.924000,0.418000,1.990000,-4.860000,-0.590000,0.000000,0.000000,0.00,0.00,83.00
7.003440,-0.010000,-0.925000,0.417000,1.890000,-4.900000,-0.590000,0.000000,0.000000,0.00,0.00,83.00
7.003440,-0.010000,-0.925000,0.417000,1.820000,-4.860000,-0.770000,0.000000,0.000000,0.00,0.00,83.00
7.004780,-0.009000,-0.924000,0.416000,1.750000,-4.860000,-0.700000,0.000000,0.000000,0.00,0.00,83.00
7.004780,-0.010000,-0.925000,0.415000,1.850000,-5.000000,-0.800000,0.000000,0.000000,0.00,0.00,83.00
7.004780,-0.008000,-0.925000,0.417000,1.680000,-4.830000,-0.800000,0.000000,0.000000,0.00,0.00,83.00
7.004780,-0.010000,-0.926000,0.414000,1.640000,-4.650000,-0.800000,0.000000,0.000000,0.00,0.00,83.00
7.004780,-0.010000,-0.924000,0.413000,1.850000,-4.930000,-0.770000,0.000000,0.000000,0.00,0.00,83.00
7.004780,-0.010000,-0.925000,0.411000,1.850000,-4.790000,-0.660000,0.000000,0.000000,0.00,0.00,83.00
7.004780,-0.008000,-0.924000,0.413000,2.030000,-4.620000,-0.770000,0.000000,0.000000,0.00,0.00,83.00
7.004780,-0.010000,-0.924000,0.413000,2.100000,-4.860000,-0.800000,0.000000,0.000000,0.00,0.00,83.00
7.004780,-0.011000,-0.926000,0.412000,2.310000,-4.830000,-0.800000,0.000000,0.000000,0.00,0.00,83.00
7.056647,-0.009000,-0.926000,0.412000,2.520000,-4.690000,-0.870000,0.000000,0.000000,0.00,0.00,83.00
7.056647,-0.009000,-0.928000,0.414000,2.730000,-4.550000,-0.730000,0.000000,0.000000,0.00,0.00,83.00
7.056647,-0.009000,-0.928000,0.416000,3.040000,-4.790000,-0.770000,0.000000,0.000000,0.00,0.00,83.00
7.056647,-0.010000,-0.930000,0.415000,3.220000,-4.720000,-0.730000,0.000000,0.000000,0.00,0.00,83.00
7.056647,-0.009000,-0.929000,0.413000,3.220000,-4.480000,-0.730000,0.000000,0.000000,0.00,0.00,83.00
7.056647,-0.010000,-0.928000,0.414000,3.600000,-4.690000,-0.730000,0.000000,0.000000,0.00,0.00,83.00
7.056647,-0.010000,-0.927000,0.415000,3.880000,-4.830000,-0.700000,0.000000,0.000000,0.00,0.00,83.00
7.056647,-0.010000,-0.927000,0.416000,3.740000,-4.510000,-0.660000,0.000000,0.000000,0.00,0.00,83.00
7.056647,-0.010000,-0.927000,0.417000,3.850000,-4.510000,-0.660000,0.000000,0.000000,0.00,0.00,83.00
7.057499,-0.010000,-0.925000,0.420000,3.990000,-4.580000,-0.700000,0.000000,0.000000,0.00,0.00,83.00
7.057499,-0.009000,-0.923000,0.417000,4.130000,-4.790000,-0.800000,0.000000,0.000000,0.00,0.00,83.00
7.057499,-0.011000,-0.921000,0.417000,3.990000,-4.510000,-0.660000,0.000000,0.000000,0.00,0.00,83.00
7.057499,-0.011000,-0.921000,0.415000,3.850000,-4.510000,-0.770000,0.000000,0.000000,0.00,0.00,83.00
7.057499,-0.012000,-0.923000,0.417000,3.880000,-4.650000,-1.010000,0.000000,0.000000,0.00,0.00,83.00
7.057499,-0.010000,-0.920000,0.419000,3.670000,-4.480000,-0.910000,0.000000,0.000000,0.00,0.00,83.00
7.057499,-0.009000,-0.924000,0.418000,3.530000,-4.370000,-0.980000,0.000000,0.000000,0.00,0.00,83.00
7.057499,-0.009000,-0.926000,0.416000,3.500000,-4.480000,-0.940000,0.000000,0.000000,0.00,0.00,83.00
7.057499,-0.011000,-0.924000,0.417000,3.390000,-4.370000,-1.050000,0.000000,0.000000,0.00,0.00,83.00
7.116235,-0.009000,-0.928000,0.418000,3.220000,-4.410000,-0.940000,0.000000,0.000000,0.00,0.00,83.00
7.116235,-0.010000,-0.925000,0.420000,3.220000,-4.410000,-1.010000,0.000000,0.000000,0.00,0.00,83.00
7.116235,-0.011000,-0.925000,0.417000,3.290000,-4.580000,-1.120000,0.000000,0.000000,0.00,0.00,83.00
7.116235,-0.010000,-0.927000,0.418000,3.500000,-4.580000,-1.150000,0.000000,0.000000,0.00,0.00,83.00
7.116235,-0.011000,-0.927000,0.416000,3.430000,-4.580000,-1.080000,0.000000,0.000000,0.00,0.00,83.00
7.116235,-0.010000,-0.927000,0.415000,3.670000,-4.830000,-1.260000,0.000000,0.000000,0.00,0.00,83.00
7.116235,-0.008000,-0.924000,0.416000,3.810000,-4.830000,-1.150000,0.000000,0.000000,0.00,0.00,83.00
7.116235,-0.009000,-0.923000,0.417000,4.130000,-4.620000,-1.080000,0.000000,0.000000,0.00,0.00,83.00
7.116235,-0.009000,-0.923000,0.415000,4.300000,-4.790000,-0.980000,0.000000,0.000000,0.00,0.00,83.00
7.176567,-0.009000,-0.920000,0.415000,4.510000,-4.760000,-0.840000,0.000000,0.000000,0.00,0.00,83.00
7.176567,-0.009000,-0.920000,0.417000,4.620000,-4.510000,-0.730000,0.000000,0.000000,0.00,0.00,83.00
7.176567,-0.007000,-0.922000,0.416000,4.650000,-4.620000,-0.770000,0.000000,0.000000,0.00,0.00,83.00
7.176567,-0.006000,-0.921000,0.417000,4.860000,-4.370000,-0.660000,0.000000,0.000000,0.00,0.00,83.00
7.176567,-0.006000,-0.923000,0.417000,4.930000,-4.200000,-0.450000,0.000000,0.000000,0.00,0.00,83.00
7.176567,-0.008000,-0.923000,0.417000,4.900000,-4.020000,-0.210000,0.000000,0.000000,0.00,0.00,83.00
7.176567,-0.009000,-0.922000,0.420000,5.000000,-3.850000,-0.100000,0.000000,0.000000,0.00,0.00,83.00
7.176567,-0.010000,-0.924000,0.418000,5.140000,-3.990000,0.030000,0.000000,0.000000,0.00,0.00,83.00
7.176567,-0.010000,-0.923000,0.420000,5.070000,-4.020000,-0.030000,0.000000,0.000000,0.00,0.00,83.00
7.177784,-0.010000,-0.921000,0.422000,5.000000,-3.990000,0.000000,0.000000,0.000000,0.00,0.00,83.00
7.177784,-0.012000,-0.923000,0.422000,4.900000,-4.230000,-0.170000,0.000000,0.000000,0.00,0.00,83.00
7.177784,-0.013000,-0.920000,0.421000,4.620000,-4.580000,-0.420000,0.000000,0.000000,0.00,0.00,83.00
7.177784,-0.012000,-0.920000,0.424000,4.370000,-4.410000,-0.450000,0.000000,0.000000,0.00,0.00,83.00
7.177784,-0.010000,-0.921000,0.426000,4.020000,-4.620000,-0.630000,0.000000,0.000000,0.00,0.00,83.00
7.177784,-0.009000,-0.919000,0.423000,3.600000,-4.790000,-0.660000,0.000000,0.000000,0.00,0.00,83.00
7.177784,-0.012000,-0.919000,0.423000,3.220000,-4.650000,-0.700000,0.000000,0.000000,0.00,0.00,83.00
7.177784,-0.013000,-0.919000,0.425000,2.690000,-4.650000,-0.800000,0.000000,0.000000,0.00,0.00,83.00
7.177784,-0.012000,-0.917000,0.424000,2.200000,-4.720000,-0.800000,0.000000,0.000000,0.00,0.00,83.00
7.236403,-0.010000,-0.921000,0.421000,2.030000,-4.720000,-0.910000,0.000000,0.000000,0.00,0.00,83.00
7.236403,-0.011000,-0.922000,0.420000,1.570000,-4.860000,-0.980000,0.000000,0.000000,0.00,0.00,83.00
7.236403,-0.010000,-0.920000,0.419000,1.430000,-4.550000,-0.910000,0.000000,0.000000,0.00,0.00,83.00
7.236403,-0.007000,-0.924000,0.417000,1.500000,-4.720000,-1.010000,0.000000,0.000000,0.00,0.00,83.00
7.236403,-0.008000,-0.923000,0.415000,1.780000,-4.690000,-1.010000,0.000000,0.000000,0.00,0.00,83.00
7.236403,-0.007000,-0.925000,0.414000,1.750000,-4.480000,-0.940000,0.000000,0.000000,0.00,0.00,83.00
7.236403,-0.007000,-0.925000,0.415000,2.130000,-4.480000,-0.800000,0.000000,0.000000,0.00,0.00,83.00
7.236403,-0.008000,-0.927000,0.415000,2.690000,-4.480000,-0.560000,0.000000,0.000000,0.00,0.00,83.00
7.236403,-0.006000,-0.926000,0.416000,2.970000,-4.340000,-0.490000,0.000000,0.000000,0.00,0.00,83.00
7.296925,-0.006000,-0.927000,0.416000,3.460000,-4.270000,-0.310000,0.000000,0.000000,0.00,0.00,83.00
7.296925,-0.009000,-0.926000,0.416000,4.160000,-4.160000,-0.210000,0.000000,0.000000,0.00,0.00,83.00
7.296925,-0.011000,-0.926000,0.417000,4.440000,-4.370000,-0.140000,0.000000,0.000000,0.00,0.00,83.00
7.296925,-0.008000,-0.923000,0.418000,4.620000,-4.370000,-0.070000,0.000000,0.000000,0.00,0.00,83.00
7.296925,-0.010000,-0.924000,0.420000,4.830000,-4.230000,-0.030000,0.000000,0.000000,0.00,0.00,83.00
7.296925,-0.011000,-0.922000,0.420000,4.970000,-4.580000,-0.030000,0.000000,0.000000,0.00,0.00,83.00
7.296925,-0.010000,-0.920000,0.423000,4.860000,-4.650000,-0.070000,0.000000,0.000000,0.00,0.00,83.00
7.296925,-0.011000,-0.918000,0.425000,4.440000,-4.510000,-0.030000,0.000000,0.000000,0.00,0.00,83.00
7.296925,-0.010000,-0.922000,0.426000,4.410000,-4.830000,-0.100000,0.000000,0.000000,0.00,0.00,83.00
7.356423,-0.011000,-0.920000,0.428000,3.810000,-4.760000,-0.280000,0.000000,0.000000,0.00,0.00,83.00
7.356423,-0.012000,-0.919000,0.430000,3.010000,-4.550000,-0.240000,0.000000,0.000000,0.00,0.00,83.00
7.356423,-0.010000,-0.918000,0.427000,2.690000,-4.620000,-0.310000,0.000000,0.000000,0.00,0.00,83.00
7.356423,-0.010000,-0.917000,0.428000,1.990000,-4.760000,-0.350000,0.000000,0.000000,0.00,0.00,83.00
7.356423,-0.011000,-0.915000,0.425000,1.260000,-4.760000,-0.520000,0.000000,0.000000,0.00,0.00,83.00
7.356423,-0.011000,-0.918000,0.423000,0.940000,-4.690000,-0.660000,0.000000,0.000000,0.00,0.00,83.00
7.356423,-0.011000,-0.917000,0.423000,0.630000,-4.970000,-0.770000,0.000000,0.000000,0.00,0.00,83.00
7.356423,-0.010000,-0.920000,0.422000,0.280000,-4.930000,-0.800000,0.000000,0.000000,0.00,0.00,83.00
7.356423,-0.010000,-0.922000,0.420000,0.030000,-4.930000,-0.800000,0.000000,0.000000,0.00,0.00,83.00
7.357753,-0.009000,-0.925000,0.419000,-0.030000,-4.830000,-0.730000,0.000000,0.000000,0.00,0.00,83.00
7.357753,-0.008000,-0.923000,0.417000,0.070000,-5.040000,-0.800000,0.000000,0.000000,0.00,0.00,83.00
7.357753,-0.008000,-0.922000,0.418000,0.100000,-5.140000,-0.730000,0.000000,0.000000,0.00,0.00,83.00
7.357753,-0.007000,-0.925000,0.416000,0.070000,-4.790000,-0.630000,0.000000,0.000000,0.00,0.00,83.00
7.357753,-0.010000,-0.924000,0.418000,0.450000,-4.900000,-0.590000,0.000000,0.000000,0.00,0.00,83.00
7.357753,-0.006000,-0.926000,0.418000,0.870000,-4.860000,-0.490000,0.000000,0.000000,0.00,0.00,83.00
7.357753,-0.008000,-0.926000,0.417000,0.840000,-4.580000,-0.240000,0.000000,0.000000,0.00,0.00,83.00
7.357753,-0.009000,-0.927000,0.420000,1.470000,-4.580000,-0.070000,0.000000,0.000000,0.00,0.00,83.00
7.357753,-0.011000,-0.927000,0.418000,1.890000,-4.650000,0.030000,0.000000,0.000000,0.00,0.00,83.00
7.358724,-0.010000,-0.924000,0.416000,1.920000,-4.480000,0.100000,0.000000,0.000000,0.00,0.00,83.00
7.358724,-0.012000,-0.925000,0.417000,2.270000,-4.550000,0.000000,0.000000,0.000000,0.00,0.00,83.00
7.358724,-0.012000,-0.924000,0.421000,2.310000,-4.650000,-0.070000,0.000000,0.000000,0.00,0.00,83.00
7.358724,-0.012000,-0.921000,0.420000,2.270000,-4.860000,-0.240000,0.000000,0.000000,0.00,0.00,83.00
7.358724,-0.011000,-0.920000,0.420000,2.030000,-4.860000,-0.240000,0.000000,0.000000,0.00,0.00,83.00
7.358724,-0.008000,-0.920000,0.422000,1.750000,-4.900000,-0.380000,0.000000,0.000000,0.00,0.00,83.00
7.358724,-0.010000,-0.920000,0.422000,1.710000,-5.210000,-0.450000,0.000000,0.000000,0.00,0.00,83.00
7.358724,-0.011000,-0.920000,0.423000,1.150000,-5.110000,-0.590000,0.000000,0.000000,0.00,0.00,83.00
7.358724,-0.010000,-0.919000,0.425000,0.590000,-4.860000,-0.660000,0.000000,0.000000,0.00,0.00,83.00
7.416396,-0.010000,-0.919000,0.422000,0.280000,-4.790000,-0.660000,0.000000,0.000000,0.00,0.00,83.00
7.416396,-0.008000,-0.921000,0.422000,0.100000,-4.930000,-0.800000,0.000000,0.000000,0.00,0.00,83.00
7.416396,-0.010000,-0.922000,0.421000,-0.070000,-4.860000,-0.660000,0.000000,0.000000,0.00,0.00,83.00
7.416396,-0.009000,-0.922000,0.417000,-0.170000,-4.550000,-0.590000,0.000000,0.000000,0.00,0.00,83.00
7.416396,-0.011000,-0.923000,0.416000,-0.100000,-4.860000,-0.560000,0.000000,0.000000,0.00,0.00,83.00
7.416396,-0.011000,-0.924000,0.417000,-0.100000,-4.690000,-0.590000,0.000000,0.000000,0.00,0.00,83.00
7.416396,-0.008000,-0.924000,0.418000,0.030000,-4.790000,-0.630000,0.000000,0.000000,0.00,0.00,83.00
7.416396,-0.007000,-0.926000,0.417000,0.210000,-5.000000,-0.660000,0.000000,0.000000,0.00,0.00,83.00
7.416396,-0.010000,-0.925000,0.416000,0.450000,-5.000000,-0.730000,0.000000,0.000000,0.00,0.00,83.00
7.476272,-0.012000,-0.926000,0.414000,0.840000,-5.000000,-0.660000,0.000000,0.000000,0.00,0.00,83.00
7.476272,-0.010000,-0.926000,0.418000,0.980000,-5.000000,-0.590000,0.000000,0.000000,0.00,0.00,83.00
7.476272,-0.009000,-0.925000,0.417000,1.150000,-5.110000,-0.490000,0.000000,0.000000,0.00,0.00,83.00
7.476272,-0.009000,-0.924000,0.417000,1.360000,-5.140000,-0.450000,0.000000,0.000000,0.00,0.00,83.00
7.476272,-0.011000,-0.922000,0.416000,1.470000,-4.930000,-0.350000,0.000000,0.000000,0.00,0.00,83.00
7.476272,-0.010000,-0.922000,0.418000,1.640000,-4.970000,-0.420000,0.000000,0.000000,0.00,0.00,83.00
7.476272,-0.009000,-0.923000,0.418000,1.640000,-5.070000,-0.310000,0.000000,0.000000,0.00,0.00,83.00
7.476272,-0.006000,-0.922000,0.418000,1.540000,-4.720000,-0.140000,0.000000,0.000000,0.00,0.00,83.00
7.476272,-0.009000,-0.919000,0.417000,1.680000,-4.580000,-0.140000,0.000000,0.000000,0.00,0.00,83.00
7.477676,-0.012000,-0.922000,0.419000,1.680000,-4.830000,-0.140000,0.000000,0.000000,0.00,0.00,83.00
7.477676,-0.011000,-0.919000,0.417000,1.470000,-4.720000,-0.100000,0.000000,0.000000,0.00,0.00,83.00
7.477676,-0.012000,-0.920000,0.418000,1.290000,-4.580000,-0.240000,0.000000,0.000000,0.00,0.00,83.00
7.477676,-0.009000,-0.921000,0.420000,1.150000,-4.720000,-0.280000,0.000000,0.000000,0.00,0.00,83.00
7.477676,-0.010000,-0.922000,0.418000,1.050000,-4.930000,-0.420000,0.000000,0.000000,0.00,0.00,83.00
7.477676,-0.013000,-0.924000,0.420000,0.770000,-4.860000,-0.450000,0.000000,0.000000,0.00,0.00,83.00
7.477676,-0.010000,-0.927000,0.420000,0.630000,-4.900000,-0.590000,0.000000,0.000000,0.00,0.00,83.00
7.477676,-0.011000,-0.924000,0.422000,0.350000,-5.040000,-0.700000,0.000000,0.000000,0.00,0.00,83.00
7.477676,-0.010000,-0.927000,0.420000,0.280000,-5.180000,-0.730000,0.000000,0.000000,0.00,0.00,83.00
7.536362,-0.009000,-0.927000,0.419000,-0.030000,-5.110000,-0.700000,0.000000,0.000000,0.00,0.00,83.00
7.536362,-0.008000,-0.927000,0.417000,-0.030000,-5.040000,-0.590000,0.000000,0.000000,0.00,0.00,83.00
7.536362,-0.010000,-0.926000,0.414000,0.170000,-5.390000,-0.700000,0.000000,0.000000,0.00,0.00,83.00
7.536362,-0.009000,-0.925000,0.417000,0.140000,-5.210000,-0.660000,0.000000,0.000000,0.00,0.00,83.00
7.536362,-0.011000,-0.927000,0.414000,0.350000,-5.140000,-0.630000,0.000000,0.000000,0.00,0.00,83.00
7.536362,-0.011000,-0.927000,0.415000,0.560000,-5.250000,-0.770000,0.000000,0.000000,0.00,0.00,83.00
7.536362,-0.009000,-0.925000,0.412000,0.940000,-5.420000,-0.870000,0.000000,0.000000,0.00,0.00,83.00
7.536362,-0.010000,-0.926000,0.414000,1.120000,-5.000000,-0.700000,0.000000,0.000000,0.00,0.00,83.00
7.536362,-0.011000,-0.925000,0.414000,1.430000,-5.000000,-0.590000,0.000000,0.000000,0.00,0.00,83.00
7.537535,-0.010000,-0.927000,0.414000,1.750000,-5.070000,-0.520000,0.000000,0.000000,0.00,0.00,83.00
7.537535,-0.011000,-0.926000,0.415000,1.920000,-4.970000,-0.490000,0.000000,0.000000,0.00,0.00,83.00
7.537535,-0.011000,-0.926000,0.413000,1.990000,-4.720000,-0.420000,0.000000,0.000000,0.00,0.00,83.00
7.537535,-0.011000,-0.926000,0.416000,2.340000,-4.900000,-0.490000,0.000000,0.000000,0.00,0.00,83.00
7.537535,-0.013000,-0.926000,0.416000,2.450000,-5.040000,-0.490000,0.000000,0.000000,0.00,0.00,83.00
7.537535,-0.011000,-0.923000,0.417000,2.340000,-4.790000,-0.520000,0.000000,0.000000,0.00,0.00,83.00
7.537535,-0.011000,-0.925000,0.417000,2.240000,-5.000000,-0.590000,0.000000,0.000000,0.00,0.00,83.00
7.537535,-0.010000,-0.923000,0.419000,2.130000,-5.280000,-0.730000,0.000000,0.000000,0.00,0.00,83.00
7.537535,-0.011000,-0.926000,0.417000,1.850000,-5.040000,-0.870000,0.000000,0.000000,0.00,0.00,83.00
7.596403,-0.010000,-0.923000,0.418000,1.400000,-5.070000,-0.800000,0.000000,0.000000,0.00,0.00,83.00
7.596403,-0.010000,-0.927000,0.417000,1.080000,-5.180000,-0.940000,0.000000,0.000000,0.00,0.00,83.00
7.596403,-0.009000,-0.924000,0.416000,0.910000,-5.390000,-1.080000,0.000000,0.000000,0.00,0.00,83.00
7.596403,-0.008000,-0.922000,0.415000,0.660000,-5.040000,-1.150000,0.000000,0.000000,0.00,0.00,83.00
7.596403,-0.008000,-0.923000,0.415000,0.630000,-5.000000,-1.120000,0.000000,0.000000,0.00,0.00,83.00
7.596403,-0.011000,-0.925000,0.415000,0.660000,-5.070000,-1.120000,0.000000,0.000000,0.00,0.00,83.00
7.596403,-0.008000,-0.926000,0.411000,0.700000,-5.000000,-1.120000,0.000000,0.000000,0.00,0.00,83.00
7.596403,-0.008000,-0.925000,0.411000,1.010000,-4.830000,-1.010000,0.000000,0.000000,0.00,0.00,83.00
7.596403,-0.006000,-0.928000,0.411000,1.400000,-4.690000,-0.940000,0.000000,0.000000,0.00,0.00,83.00
7.656212,-0.006000,-0.928000,0.412000,1.680000,-4.970000,-0.980000,0.000000,0.000000,0.00,0.00,83.00
7.656212,-0.007000,-0.929000,0.412000,2.030000,-4.690000,-0.770000,0.000000,0.000000,0.00,0.00,83.00
7.656212,-0.008000,-0.929000,0.410000,2.590000,-4.690000,-0.660000,0.000000,0.000000,0.00,0.00,83.00
7.656212,-0.007000,-0.928000,0.410000,3.010000,-4.830000,-0.660000,0.000000,0.000000,0.00,0.00,83.00
7.656212,-0.008000,-0.931000,0.413000,3.430000,-4.860000,-0.520000,0.000000,0.000000,0.00,0.00,83.00
7.656212,-0.011000,-0.927000,0.415000,3.640000,-4.720000,-0.420000,0.000000,0.000000,0.00,0.00,83.00
7.656212,-0.008000,-0.925000,0.414000,3.920000,-4.970000,-0.590000,0.000000,0.000000,0.00,0.00,83.00
7.656212,-0.011000,-0.927000,0.418000,3.990000,-4.900000,-0.590000,0.000000,0.000000,0.00,0.00,83.00
7.656212,-0.009000,-0.925000,0.418000,3.780000,-4.930000,-0.770000,0.000000,0.000000,0.00,0.00,83.00
7.657350,-0.013000,-0.926000,0.418000,3.710000,-4.790000,-0.980000,0.000000,0.000000,0.00,0.00,83.00
7.657350,-0.011000,-0.925000,0.420000,3.530000,-4.900000,-1.220000,0.000000,0.000000,0.00,0.00,83.00
7.657350,-0.010000,-0.926000,0.422000,3.320000,-4.930000,-1.500000,0.000000,0.000000,0.00,0.00,83.00
7.657350,-0.006000,-0.924000,0.418000,3.150000,-4.650000,-1.540000,0.000000,0.000000,0.00,0.00,83.00
7.657350,-0.005000,-0.924000,0.420000,3.040000,-4.720000,-1.360000,0.000000,0.000000,0.00,0.00,83.00
7.657350,-0.005000,-0.922000,0.414000,2.940000,-4.720000,-1.220000,0.000000,0.000000,0.00,0.00,83.00
7.657350,-0.007000,-0.919000,0.413000,2.970000,-4.790000,-1.120000,0.000000,0.000000,0.00,0.00,83.00
7.657350,-0.010000,-0.921000,0.413000,2.970000,-4.510000,-1.010000,0.000000,0.000000,0.00,0.00,83.00
7.657350,-0.008000,-0.921000,0.412000,3.390000,-4.580000,-1.120000,0.000000,0.000000,0.00,0.00,83.00
7.776787,-0.007000,-0.921000,0.416000,3.810000,-4.650000,-1.080000,0.000000,0.000000,0.00,0.00,83.00
7.776787,-0.006000,-0.922000,0.415000,3.880000,-4.340000,-0.980000,0.000000,0.000000,0.00,0.00,83.00
7.776787,-0.005000,-0.927000,0.413000,4.060000,-4.270000,-0.660000,0.000000,0.000000,0.00,0.00,83.00
7.776787,-0.008000,-0.925000,0.415000,4.340000,-4.300000,-0.490000,0.000000,0.000000,0.00,0.00,83.00
7.776787,-0.008000,-0.923000,0.417000,4.340000,-4.160000,-0.380000,0.000000,0.000000,0.00,0.00,83.00
7.776787,-0.009000,-0.924000,0.416000,4.410000,-4.130000,-0.280000,0.000000,0.000000,0.00,0.00,83.00
7.776787,-0.011000,-0.925000,0.419000,4.690000,-4.270000,-0.280000,0.000000,0.000000,0.00,0.00,83.00
7.776787,-0.011000,-0.925000,0.416000,4.690000,-4.300000,-0.380000,0.000000,0.000000,0.00,0.00,83.00
7.776787,-0.013000,-0.926000,0.418000,4.720000,-4.160000,-0.450000,0.000000,0.000000,0.00,0.00,83.00
7.778310,-0.009000,-0.923000,0.419000,4.860000,-4.300000,-0.380000,0.000000,0.000000,0.00,0.00,83.00
7.778310,-0.009000,-0.922000,0.421000,4.860000,-4.580000,-0.490000,0.000000,0.000000,0.00,0.00,83.00
7.778310,-0.011000,-0.923000,0.422000,4.620000,-4.440000,-0.520000,0.000000,0.000000,0.00,0.00,83.00
7.778310,-0.010000,-0.924000,0.421000,4.480000,-4.440000,-0.490000,0.000000,0.000000,0.00,0.00,83.00
7.778310,-0.011000,-0.922000,0.423000,4.440000,-4.620000,-0.560000,0.000000,0.000000,0.00,0.00,83.00
7.778310,-0.011000,-0.923000,0.423000,4.090000,-4.620000,-0.730000,0.000000,0.000000,0.00,0.00,83.00
7.778310,-0.009000,-0.923000,0.421000,3.850000,-4.480000,-0.840000,0.000000,0.000000,0.00,0.00,83.00
7.778310,-0.011000,-0.922000,0.421000,3.850000,-4.620000,-0.770000,0.000000,0.000000,0.00,0.00,83.00
7.778310,-0.010000,-0.923000,0.422000,3.500000,-4.760000,-0.870000,0.000000,0.000000,0.00,0.00,83.00
7.779184,-0.011000,-0.923000,0.420000,3.150000,-4.690000,-0.870000,0.000000,0.000000,0.00,0.00,83.00
7.779184,-0.009000,-0.924000,0.423000,2.900000,-4.790000,-1.010000,0.000000,0.000000,0.00,0.00,83.00
7.779184,-0.008000,-0.922000,0.420000,2.870000,-4.860000,-1.010000,0.000000,0.000000,0.00,0.00,83.00
7.779184,-0.010000,-0.922000,0.421000,2.800000,-4.970000,-1.150000,0.000000,0.000000,0.00,0.00,83.00
7.779184,-0.012000,-0.925000,0.420000,2.690000,-4.790000,-1.080000,0.000000,0.000000,0.00,0.00,83.00
7.779184,-0.010000,-0.925000,0.419000,2.690000,-4.720000,-1.050000,0.000000,0.000000,0.00,0.00,83.00
7.779184,-0.010000,-0.924000,0.416000,2.800000,-4.790000,-1.080000,0.000000,0.000000,0.00,0.00,83.00
7.779184,-0.009000,-0.923000,0.416000,2.900000,-4.900000,-0.940000,0.000000,0.000000,0.00,0.00,83.00
7.779184,-0.010000,-0.923000,0.418000,2.940000,-4.580000,-0.910000,0.000000,0.000000,0.00,0.00,83.00
7.780159,-0.009000,-0.926000,0.414000,3.150000,-4.690000,-0.870000,0.000000,0.000000,0.00,0.00,83.00
7.780159,-0.009000,-0.924000,0.417000,3.460000,-4.720000,-0.840000,0.000000,0.000000,0.00,0.00,83.00
7.780159,-0.009000,-0.922000,0.415000,3.430000,-4.510000,-0.730000,0.000000,0.000000,0.00,0.00,83.00
7.780159,-0.007000,-0.923000,0.418000,3.640000,-4.510000,-0.590000,0.000000,0.000000,0.00,0.00,83.00
7.780159,-0.008000,-0.924000,0.418000,3.880000,-4.550000,-0.630000,0.000000,0.000000,0.00,0.00,83.00
7.780159,-0.009000,-0.924000,0.418000,3.850000,-4.580000,-0.630000,0.000000,0.000000,0.00,0.00,83.00
7.780159,-0.010000,-0.925000,0.422000,3.920000,-4.580000,-0.590000,0.000000,0.000000,0.00,0.00,83.00
7.780159,-0.008000,-0.921000,0.424000,3.950000,-4.580000,-0.560000,0.000000,0.000000,0.00,0.00,83.00
7.780159,-0.007000,-0.922000,0.422000,4.060000,-4.720000,-0.660000,0.000000,0.000000,0.00,0.00,83.00
7.836321,-0.010000,-0.920000,0.424000,3.780000,-4.440000,-0.520000,0.000000,0.000000,0.00,0.00,83.00
7.836321,-0.010000,-0.919000,0.421000,3.710000,-4.550000,-0.520000,0.000000,0.000000,0.00,0.00,83.00
7.836321,-0.008000,-0.918000,0.420000,3.780000,-4.580000,-0.590000,0.000000,0.000000,0.00,0.00,83.00
7.836321,-0.011000,-0.918000,0.422000,3.430000,-4.720000,-0.560000,0.000000,0.000000,0.00,0.00,83.00
7.836321,-0.008000,-0.917000,0.421000,3.150000,-4.510000,-0.520000,0.000000,0.000000,0.00,0.00,83.00
7.836321,-0.010000,-0.919000,0.423000,2.940000,-4.340000,-0.560000,0.000000,0.000000,0.00,0.00,83.00
7.836321,-0.008000,-0.921000,0.421000,2.940000,-4.620000,-0.590000,0.000000,0.000000,0.00,0.00,83.00
7.836321,-0.011000,-0.923000,0.421000,2.760000,-4.550000,-0.560000,0.000000,0.000000,0.00,0.00,83.00
7.836321,-0.009000,-0.923000,0.424000,2.550000,-4.370000,-0.450000,0.000000,0.000000,0.00,0.00,83.00
7.896103,-0.009000,-0.923000,0.424000,2.590000,-4.580000,-0.560000,0.000000,0.000000,0.00,0.00,83.00
7.896103,-0.009000,-0.923000,0.423000,2.340000,-4.720000,-0.560000,0.000000,0.000000,0.00,0.00,83.00
7.896103,-0.011000,-0.925000,0.424000,2.340000,-4.690000,-0.560000,0.000000,0.000000,0.00,0.00,83.00
7.896103,-0.014000,-0.925000,0.422000,2.200000,-4.760000,-0.590000,0.000000,0.000000,0.00,0.00,83.00
7.896103,-0.010000,-0.922000,0.421000,2.170000,-5.070000,-0.730000,0.000000,0.000000,0.00,0.00,83.00
7.896103,-0.010000,-0.925000,0.424000,2.130000,-5.110000,-0.800000,0.000000,0.000000,0.00,0.00,83.00
7.896103,-0.012000,-0.922000,0.419000,1.990000,-4.860000,-0.660000,0.000000,0.000000,0.00,0.00,83.00
7.896103,-0.007000,-0.922000,0.419000,1.990000,-5.110000,-0.770000,0.000000,0.000000,0.00,0.00,83.00
7.896103,-0.008000,-0.921000,0.421000,2.030000,-5.180000,-0.770000,0.000000,0.000000,0.00,0.00,83.00
7.897649,-0.007000,-0.923000,0.420000,1.850000,-4.900000,-0.660000,0.000000,0.000000,0.00,0.00,83.00
7.897649,-0.011000,-0.921000,0.421000,1.850000,-4.830000,-0.560000,0.000000,0.000000,0.00,0.00,83.00
7.897649,-0.007000,-0.922000,0.421000,1.960000,-4.900000,-0.450000,0.000000,0.000000,0.00,0.00,83.00
7.897649,-0.009000,-0.922000,0.422000,1.780000,-4.720000,-0.420000,0.000000,0.000000,0.00,0.00,83.00
7.897649,-0.010000,-0.922000,0.423000,1.780000,-4.650000,-0.310000,0.000000,0.000000,0.00,0.00,83.00
7.897649,-0.010000,-0.923000,0.419000,1.710000,-4.790000,-0.380000,0.000000,0.000000,0.00,0.00,83.00
7.897649,-0.012000,-0.923000,0.423000,1.750000,-4.930000,-0.420000,0.000000,0.000000,0.00,0.00,83.00
7.897649,-0.011000,-0.923000,0.420000,1.610000,-4.790000,-0.380000,0.000000,0.000000,0.00,0.00,83.00
7.897649,-0.011000,-0.921000,0.420000,1.540000,-4.830000,-0.420000,0.000000,0.000000,0.00,0.00,83.00
7.956456,-0.012000,-0.921000,0.421000,1.500000,-5.110000,-0.590000,0.000000,0.000000,0.00,0.00,83.00
7.956456,-0.010000,-0.921000,0.422000,1.260000,-5.070000,-0.660000,0.000000,0.000000,0.00,0.00,83.00
7.956456,-0.011000,-0.921000,0.421000,1.080000,-5.040000,-0.630000,0.000000,0.000000,0.00,0.00,83.00
7.956456,-0.010000,-0.920000,0.423000,1.050000,-5.140000,-0.560000,0.000000,0.000000,0.00,0.00,83.00
7.956456,-0.010000,-0.922000,0.420000,0.910000,-5.180000,-0.660000,0.000000,0.000000,0.00,0.00,83.00
7.956456,-0.010000,-0.923000,0.418000,0.770000,-5.110000,-0.660000,0.000000,0.000000,0.00,0.00,83.00
7.956456,-0.007000,-0.922000,0.419000,0.800000,-4.860000,-0.590000,0.000000,0.000000,0.00,0.00,83.00
7.956456,-0.010000,-0.922000,0.421000,0.730000,-5.040000,-0.560000,0.000000,0.000000,0.00,0.00,83.00
7.956456,-0.009000,-0.922000,0.420000,0.660000,-5.110000,-0.490000,0.000000,0.000000,0.00,0.00,83.00
8.016229,-0.010000,-0.922000,0.420000,0.660000,-4.970000,-0.490000,0.000000,0.000000,0.00,0.00,83.00
8.016229,-0.010000,-0.924000,0.418000,0.910000,-5.070000,-0.560000,0.000000,0.000000,0.00,0.00,83.00
8.016229,-0.011000,-0.924000,0.419000,0.940000,-5.210000,-0.660000,0.000000,0.000000,0.00,0.00,83.00
8.016229,-0.012000,-0.924000,0.418000,0.980000,-5.210000,-0.700000,0.000000,0.000000,0.00,0.00,83.00
8.016229,-0.010000,-0.923000,0.419000,0.980000,-5.140000,-0.630000,0.000000,0.000000,0.00,0.00,83.00
8.016229,-0.010000,-0.922000,0.420000,1.050000,-5.280000,-0.730000,0.000000,0.000000,0.00,0.00,83.00
8.016229,-0.010000,-0.921000,0.420000,0.980000,-5.250000,-0.730000,0.000000,0.000000,0.00,0.00,83.00
8.016229,-0.008000,-0.923000,0.420000,0.730000,-5.000000,-0.700000,0.000000,0.000000,0.00,0.00,83.00
8.016229,-0.008000,-0.923000,0.419000,0.730000,-5.140000,-0.630000,0.000000,0.000000,0.00,0.00,83.00
8.017995,-0.009000,-0.922000,0.419000,0.660000,-5.110000,-0.700000,0.000000,0.000000,0.00,0.00,83.00
8.017995,-0.010000,-0.923000,0.417000,0.560000,-5.140000,-0.660000,0.000000,0.000000,0.00,0.00,83.00
8.017995,-0.011000,-0.924000,0.418000,0.590000,-4.970000,-0.560000,0.000000,0.000000,0.00,0.00,83.00
8.017995,-0.008000,-0.921000,0.419000,0.700000,-4.970000,-0.660000,0.000000,0.000000,0.00,0.00,83.00
8.017995,-0.008000,-0.922000,0.422000,0.730000,-5.000000,-0.660000,0.000000,0.000000,0.00,0.00,83.00
8.017995,-0.007000,-0.923000,0.419000,0.660000,-4.760000,-0.560000,0.000000,0.000000,0.00,0.00,83.00
8.017995,-0.010000,-0.925000,0.417000,1.010000,-4.760000,-0.560000,0.000000,0.000000,0.00,0.00,83.00
8.017995,-0.008000,-0.925000,0.416000,1.120000,-4.930000,-0.630000,0.000000,0.000000,0.00,0.00,83.00
8.017995,-0.008000,-0.922000,0.416000,1.080000,-4.830000,-0.590000,0.000000,0.000000,0.00,0.00,83.00
8.076727,-0.008000,-0.922000,0.417000,1.220000,-4.900000,-0.630000,0.000000,0.000000,0.00,0.00,83.00
8.076727,-0.007000,-0.923000,0.418000,1.220000,-4.970000,-0.630000,0.000000,0.000000,0.00,0.00,83.00
8.076727,-0.009000,-0.921000,0.420000,1.290000,-5.140000,-0.730000,0.000000,0.000000,0.00,0.00,83.00
8.076727,-0.007000,-0.924000,0.420000,1.190000,-4.970000,-0.660000,0.000000,0.000000,0.00,0.00,83.00
8.076727,-0.007000,-0.921000,0.418000,1.120000,-4.860000,-0.590000,0.000000,0.000000,0.00,0.00,83.00
8.076727,-0.009000,-0.920000,0.418000,1.120000,-5.280000,-0.730000,0.000000,0.000000,0.00,0.00,83.00
8.076727,-0.007000,-0.919000,0.417000,0.870000,-5.040000,-0.730000,0.000000,0.000000,0.00,0.00,83.00
8.076727,-0.009000,-0.921000,0.418000,0.660000,-5.070000,-0.660000,0.000000,0.000000,0.00,0.00,83.00
8.076727,-0.008000,-0.921000,0.418000,0.770000,-5.350000,-0.770000,0.000000,0.000000,0.00,0.00,83.00
8.077791,-0.008000,-0.918000,0.414000,0.450000,-5.250000,-0.630000,0.000000,0.000000,0.00,0.00,83.00
8.077791,-0.008000,-0.919000,0.416000,0.100000,-5.210000,-0.590000,0.000000,0.000000,0.00,0.00,83.00
8.077791,-0.008000,-0.922000,0.415000,0.140000,-5.320000,-0.590000,0.000000,0.000000,0.00,0.00,83.00
8.077791,-0.008000,-0.922000,0.415000,0.240000,-5.350000,-0.590000,0.000000,0.000000,0.00,0.00,83.00
8.077791,-0.009000,-0.925000,0.416000,0.140000,-5.250000,-0.590000,0.000000,0.000000,0.00,0.00,83.00
8.077791,-0.006000,-0.927000,0.419000,0.170000,-5.140000,-0.420000,0.000000,0.000000,0.00,0.00,83.00
8.077791,-0.007000,-0.928000,0.421000,0.350000,-5.320000,-0.310000,0.000000,0.000000,0.00,0.00,83.00
8.077791,-0.009000,-0.928000,0.418000,0.490000,-5.350000,-0.310000,0.000000,0.000000,0.00,0.00,83.00
8.077791,-0.011000,-0.929000,0.420000,0.450000,-5.250000,-0.170000,0.000000,0.000000,0.00,0.00,83.00
8.136304,-0.011000,-0.931000,0.420000,0.450000,-5.140000,-0.140000,0.000000,0.000000,0.00,0.00,83.00
8.136304,-0.011000,-0.928000,0.417000,0.630000,-5.350000,-0.210000,0.000000,0.000000,0.00,0.00,83.00
8.136304,-0.009000,-0.925000,0.417000,0.630000,-5.460000,-0.380000,0.000000,0.000000,0.00,0.00,83.00
8.136304,-0.011000,-0.925000,0.417000,0.560000,-5.180000,-0.350000,0.000000,0.000000,0.00,0.00,83.00
8.136304,-0.010000,-0.925000,0.415000,0.560000,-5.320000,-0.490000,0.000000,0.000000,0.00,0.00,83.00
8.136304,-0.011000,-0.923000,0.416000,0.560000,-5.460000,-0.660000,0.000000,0.000000,0.00,0.00,83.00
8.136304,-0.009000,-0.924000,0.414000,0.420000,-5.280000,-0.700000,0.000000,0.000000,0.00,0.00,83.00
8.136304,-0.010000,-0.922000,0.416000,0.350000,-5.280000,-0.800000,0.000000,0.000000,0.00,0.00,83.00
8.136304,-0.007000,-0.925000,0.414000,0.350000,-5.350000,-0.840000,0.000000,0.000000,0.00,0.00,83.00
8.196593,-0.008000,-0.925000,0.415000,0.210000,-5.210000,-0.870000,0.000000,0.000000,0.00,0.00,83.00
8.196593,-0.007000,-0.924000,0.415000,0.240000,-4.930000,-0.730000,0.000000,0.000000,0.00,0.00,83.00
8.196593,-0.006000,-0.925000,0.413000,0.490000,-5.040000,-0.800000,0.000000,0.000000,0.00,0.00,83.00
8.196593,-0.009000,-0.927000,0.412000,0.660000,-5.070000,-0.770000,0.000000,0.000000,0.00,0.00,83.00
8.196593,-0.009000,-0.927000,0.413000,0.770000,-4.790000,-0.590000,0.000000,0.000000,0.00,0.00,83.00
8.196593,-0.009000,-0.928000,0.413000,1.080000,-4.760000,-0.520000,0.000000,0.000000,0.00,0.00,83.00
8.196593,-0.010000,-0.927000,0.413000,1.400000,-5.040000,-0.560000,0.000000,0.000000,0.00,0.00,83.00
8.196593,-0.010000,-0.927000,0.412000,1.640000,-4.970000,-0.590000,0.000000,0.000000,0.00,0.00,83.00
8.196593,-0.008000,-0.924000,0.413000,1.780000,-4.970000,-0.420000,0.000000,0.000000,0.00,0.00,83.00
8.199116,-0.010000,-0.924000,0.413000,1.890000,-5.070000,-0.420000,0.000000,0.000000,0.00,0.00,83.00
8.199116,-0.009000,-0.924000,0.410000,2.100000,-5.320000,-0.520000,0.000000,0.000000,0.00,0.00,83.00
8.199116,-0.008000,-0.922000,0.413000,2.130000,-5.320000,-0.630000,0.000000,0.000000,0.00,0.00,83.00
8.199116,-0.009000,-0.922000,0.415000,1.960000,-5.040000,-0.450000,0.000000,0.000000,0.00,0.00,83.00
8.199116,-0.007000,-0.923000,0.416000,2.030000,-5.250000,-0.520000,0.000000,0.000000,0.00,0.00,83.00
8.199116,-0.008000,-0.923000,0.417000,1.710000,-5.140000,-0.490000,0.000000,0.000000,0.00,0.00,83.00
8.199116,-0.008000,-0.926000,0.418000,1.400000,-4.930000,-0.520000,0.000000,0.000000,0.00,0.00,83.00
8.199116,-0.008000,-0.925000,0.416000,1.430000,-5.110000,-0.490000,0.000000,0.000000,0.00,0.00,83.00
8.199116,-0.008000,-0.925000,0.418000,1.120000,-5.040000,-0.490000,0.000000,0.000000,0.00,0.00,83.00
8.256516,-0.007000,-0.923000,0.415000,0.940000,-4.930000,-0.490000,0.000000,0.000000,0.00,0.00,83.00
8.256516,-0.008000,-0.924000,0.414000,0.870000,-4.790000,-0.380000,0.000000,0.000000,0.00,0.00,83.00
8.256516,-0.008000,-0.924000,0.412000,0.800000,-4.930000,-0.380000,0.000000,0.000000,0.00,0.00,83.00
8.256516,-0.010000,-0.924000,0.413000,0.800000,-5.000000,-0.490000,0.000000,0.000000,0.00,0.00,83.00
8.256516,-0.010000,-0.925000,0.415000,0.630000,-4.830000,-0.490000,0.000000,0.000000,0.00,0.00,83.00
8.256516,-0.010000,-0.925000,0.410000,0.940000,-4.930000,-0.590000,0.000000,0.000000,0.00,0.00,83.00
8.256516,-0.009000,-0.923000,0.413000,0.980000,-5.140000,-0.770000,0.000000,0.000000,0.00,0.00,83.00
8.256516,-0.008000,-0.927000,0.413000,0.910000,-4.970000,-0.730000,0.000000,0.000000,0.00,0.00,83.00
8.256516,-0.006000,-0.924000,0.413000,1.050000,-4.830000,-0.730000,0.000000,0.000000,0.00,0.00,83.00
8.257929,-0.006000,-0.927000,0.413000,1.220000,-4.830000,-0.660000,0.000000,0.000000,0.00,0.00,83.00
8.257929,-0.008000,-0.928000,0.411000,1.360000,-4.900000,-0.590000,0.000000,0.000000,0.00,0.00,83.00
8.257929,-0.009000,-0.928000,0.410000,1.330000,-4.650000,-0.380000,0.000000,0.000000,0.00,0.00,83.00
8.257929,-0.008000,-0.927000,0.411000,1.750000,-4.550000,-0.380000,0.000000,0.000000,0.00,0.00,83.00
8.257929,-0.009000,-0.929000,0.412000,2.130000,-4.510000,-0.310000,0.000000,0.000000,0.00,0.00,83.00
8.257929,-0.009000,-0.930000,0.409000,2.130000,-4.550000,-0.280000,0.000000,0.000000,0.00,0.00,83.00
8.257929,-0.010000,-0.927000,0.410000,2.380000,-4.440000,-0.280000,0.000000,0.000000,0.00,0.00,83.00
8.257929,-0.009000,-0.927000,0.413000,2.730000,-4.480000,-0.240000,0.000000,0.000000,0.00,0.00,83.00
8.257929,-0.009000,-0.925000,0.410000,2.800000,-4.760000,-0.350000,0.000000,0.000000,0.00,0.00,83.00
8.316481,-0.007000,-0.929000,0.415000,3.010000,-4.650000,-0.350000,0.000000,0.000000,0.00,0.00,83.00
8.316481,-0.009000,-0.928000,0.413000,2.970000,-4.580000,-0.350000,0.000000,0.000000,0.00,0.00,83.00
8.316481,-0.010000,-0.928000,0.416000,3.040000,-4.860000,-0.490000,0.000000,0.000000,0.00,0.00,83.00
8.316481,-0.010000,-0.928000,0.417000,2.800000,-4.860000,-0.590000,0.000000,0.000000,0.00,0.00,83.00
8.316481,-0.008000,-0.922000,0.415000,2.690000,-4.760000,-0.630000,0.000000,0.000000,0.00,0.00,83.00
8.316481,-0.009000,-0.926000,0.416000,2.590000,-4.900000,-0.730000,0.000000,0.000000,0.00,0.00,83.00
8.316481,-0.010000,-0.927000,0.416000,2.480000,-5.040000,-0.800000,0.000000,0.000000,0.00,0.00,83.00
8.316481,-0.009000,-0.926000,0.417000,2.200000,-4.860000,-0.770000,0.000000,0.000000,0.00,0.00,83.00
8.316481,-0.007000,-0.927000,0.413000,2.170000,-4.790000,-0.840000,0.000000,0.000000,0.00,0.00,83.00
8.376539,-0.009000,-0.925000,0.414000,2.130000,-4.930000,-0.800000,0.000000,0.000000,0.00,0.00,83.00
8.376539,-0.009000,-0.926000,0.412000,2.100000,-4.860000,-0.870000,0.000000,0.000000,0.00,0.00,83.00
8.376539,-0.010000,-0.927000,0.411000,2.200000,-4.650000,-0.700000,0.000000,0.000000,0.00,0.00,83.00
8.376539,-0.009000,-0.926000,0.412000,2.340000,-4.580000,-0.770000,0.000000,0.000000,0.00,0.00,83.00
8.376539,-0.010000,-0.929000,0.411000,2.620000,-4.720000,-0.700000,0.000000,0.000000,0.00,0.00,83.00
8.376539,-0.009000,-0.928000,0.411000,2.590000,-4.410000,-0.700000,0.000000,0.000000,0.00,0.00,83.00
8.376539,-0.010000,-0.928000,0.412000,2.970000,-4.370000,-0.660000,0.000000,0.000000,0.00,0.00,83.00
8.376539,-0.006000,-0.927000,0.410000,3.390000,-4.580000,-0.590000,0.000000,0.000000,0.00,0.00,83.00
8.376539,-0.008000,-0.926000,0.409000,3.670000,-4.690000,-0.660000,0.000000,0.000000,0.00,0.00,83.00
8.378123,-0.007000,-0.924000,0.411000,3.670000,-4.480000,-0.560000,0.000000,0.000000,0.00,0.00,83.00
8.378123,-0.009000,-0.926000,0.415000,3.780000,-4.550000,-0.630000,0.000000,0.000000,0.00,0.00,83.00
8.378123,-0.010000,-0.926000,0.413000,4.090000,-4.650000,-0.630000,0.000000,0.000000,0.00,0.00,83.00
8.378123,-0.009000,-0.923000,0.415000,4.020000,-4.550000,-0.660000,0.000000,0.000000,0.00,0.00,83.00
8.378123,-0.010000,-0.924000,0.416000,3.920000,-4.550000,-0.590000,0.000000,0.000000,0.00,0.00,83.00
8.378123,-0.010000,-0.924000,0.415000,3.880000,-4.580000,-0.560000,0.000000,0.000000,0.00,0.00,83.00
8.378123,-0.010000,-0.924000,0.416000,3.880000,-4.650000,-0.730000,0.000000,0.000000,0.00,0.00,83.00
8.378123,-0.009000,-0.922000,0.417000,3.600000,-4.480000,-0.730000,0.000000,0.000000,0.00,0.00,83.00
8.378123,-0.011000,-0.921000,0.418000,3.250000,-4.550000,-0.770000,0.000000,0.000000,0.00,0.00,83.00
8.436550,-0.010000,-0.921000,0.417000,3.150000,-4.900000,-0.870000,0.000000,0.000000,0.00,0.00,83.00
8.436550,-0.009000,-0.920000,0.416000,2.800000,-4.760000,-1.010000,0.000000,0.000000,0.00,0.00,83.00
8.436550,-0.007000,-0.923000,0.416000,2.590000,-4.620000,-0.840000,0.000000,0.000000,0.00,0.00,83.00
8.436550,-0.009000,-0.924000,0.416000,2.660000,-4.930000,-0.840000,0.000000,0.000000,0.00,0.00,83.00
8.436550,-0.009000,-0.926000,0.419000,2.480000,-4.900000,-0.840000,0.000000,0.000000,0.00,0.00,83.00
8.436550,-0.009000,-0.925000,0.414000,2.480000,-4.650000,-0.940000,0.000000,0.000000,0.00,0.00,83.00
8.436550,-0.005000,-0.926000,0.416000,2.620000,-4.760000,-0.870000,0.000000,0.000000,0.00,0.00,83.00
8.436550,-0.008000,-0.925000,0.413000,2.730000,-4.760000,-0.730000,0.000000,0.000000,0.00,0.00,83.00
8.436550,-0.008000,-0.923000,0.411000,2.800000,-4.790000,-0.660000,0.000000,0.000000,0.00,0.00,83.00
8.437766,-0.009000,-0.925000,0.410000,2.870000,-4.510000,-0.380000,0.000000,0.000000,0.00,0.00,83.00
8.437766,-0.011000,-0.924000,0.413000,3.290000,-4.690000,-0.490000,0.000000,0.000000,0.00,0.00,83.00
8.437766,-0.010000,-0.923000,0.412000,3.460000,-4.720000,-0.590000,0.000000,0.000000,0.00,0.00,83.00
8.437766,-0.008000,-0.923000,0.416000,3.640000,-4.760000,-0.590000,0.000000,0.000000,0.00,0.00,83.00
8.437766,-0.007000,-0.927000,0.415000,3.600000,-4.580000,-0.520000,0.000000,0.000000,0.00,0.00,83.00
8.437766,-0.008000,-0.925000,0.416000,3.710000,-4.620000,-0.560000,0.000000,0.000000,0.00,0.00,83.00
8.437766,-0.010000,-0.923000,0.417000,3.780000,-4.790000,-0.490000,0.000000,0.000000,0.00,0.00,83.00
8.437766,-0.010000,-0.920000,0.416000,3.530000,-4.440000,-0.310000,0.000000,0.000000,0.00,0.00,83.00
8.437766,-0.010000,-0.922000,0.417000,3.390000,-4.580000,-0.490000,0.000000,0.000000,0.00,0.00,83.00
8.496277,-0.011000,-0.923000,0.419000,3.150000,-4.690000,-0.520000,0.000000,0.000000,0.00,0.00,83.00
8.496277,-0.010000,-0.924000,0.419000,2.900000,-4.620000,-0.560000,0.000000,0.000000,0.00,0.00,83.00
8.496277,-0.010000,-0.923000,0.418000,2.660000,-4.480000,-0.560000,0.000000,0.000000,0.00,0.00,83.00
8.496277,-0.008000,-0.921000,0.416000,2.380000,-4.580000,-0.590000,0.000000,0.000000,0.00,0.00,83.00
8.496277,-0.009000,-0.924000,0.418000,2.270000,-4.510000,-0.630000,0.000000,0.000000,0.00,0.00,83.00
8.496277,-0.010000,-0.924000,0.417000,1.890000,-4.480000,-0.630000,0.000000,0.000000,0.00,0.00,83.00
8.496277,-0.010000,-0.924000,0.415000,1.820000,-4.480000,-0.630000,0.000000,0.000000,0.00,0.00,83.00
8.496277,-0.009000,-0.923000,0.416000,1.850000,-4.620000,-0.800000,0.000000,0.000000,0.00,0.00,83.00
8.496277,-0.010000,-0.926000,0.415000,1.820000,-4.550000,-0.770000,0.000000,0.000000,0.00,0.00,83.00
8.556190,-0.009000,-0.927000,0.413000,2.030000,-4.580000,-0.660000,0.000000,0.000000,0.00,0.00,83.00
8.556190,-0.008000,-0.927000,0.416000,2.270000,-4.790000,-0.800000,0.000000,0.000000,0.00,0.00,83.00
8.556190,-0.010000,-0.927000,0.416000,2.480000,-4.790000,-0.700000,0.000000,0.000000,0.00,0.00,83.00
8.556190,-0.008000,-0.929000,0.413000,2.690000,-4.550000,-0.660000,0.000000,0.000000,0.00,0.00,83.00
8.556190,-0.007000,-0.927000,0.415000,2.830000,-4.760000,-0.660000,0.000000,0.000000,0.00,0.00,83.00
8.556190,-0.008000,-0.927000,0.415000,3.080000,-4.830000,-0.660000,0.000000,0.000000,0.00,0.00,83.00
8.556190,-0.006000,-0.926000,0.415000,3.180000,-4.790000,-0.660000,0.000000,0.000000,0.00,0.00,83.00
8.556190,-0.010000,-0.926000,0.417000,3.150000,-4.720000,-0.590000,0.000000,0.000000,0.00,0.00,83.00
8.556190,-0.009000,-0.924000,0.415000,3.220000,-5.000000,-0.590000,0.000000,0.000000,0.00,0.00,83.00
8.557352,-0.009000,-0.922000,0.416000,3.080000,-5.070000,-0.660000,0.000000,0.000000,0.00,0.00,83.00
8.557352,-0.009000,-0.922000,0.416000,2.760000,-4.970000,-0.700000,0.000000,0.000000,0.00,0.00,83.00
8.557352,-0.008000,-0.921000,0.415000,2.870000,-4.900000,-0.660000,0.000000,0.000000,0.00,0.00,83.00
8.557352,-0.009000,-0.922000,0.419000,2.620000,-5.040000,-0.840000,0.000000,0.000000,0.00,0.00,83.00
8.557352,-0.008000,-0.921000,0.416000,2.310000,-4.970000,-0.770000,0.000000,0.000000,0.00,0.00,83.00
8.557352,-0.009000,-0.921000,0.418000,2.060000,-4.720000,-0.660000,0.000000,0.000000,0.00,0.00,83.00
8.557352,-0.010000,-0.924000,0.417000,1.920000,-4.760000,-0.630000,0.000000,0.000000,0.00,0.00,83.00
8.557352,-0.008000,-0.922000,0.413000,1.920000,-4.860000,-0.700000,0.000000,0.000000,0.00,0.00,83.00
8.557352,-0.010000,-0.924000,0.416000,1.680000,-4.580000,-0.560000,0.000000,0.000000,0.00,0.00,83.00
8.616423,-0.009000,-0.925000,0.413000,1.640000,-4.580000,-0.560000,0.000000,0.000000,0.00,0.00,83.00
8.616423,-0.010000,-0.927000,0.412000,1.820000,-4.720000,-0.630000,0.000000,0.000000,0.00,0.00,83.00
8.616423,-0.006000,-0.926000,0.417000,1.750000,-4.510000,-0.590000,0.000000,0.000000,0.00,0.00,83.00
8.616423,-0.010000,-0.927000,0.411000,1.960000,-4.480000,-0.520000,0.000000,0.000000,0.00,0.00,83.00
8.616423,-0.009000,-0.927000,0.414000,2.310000,-4.650000,-0.520000,0.000000,0.000000,0.00,0.00,83.00
8.616423,-0.009000,-0.927000,0.413000,2.340000,-4.650000,-0.490000,0.000000,0.000000,0.00,0.00,83.00
8.616423,-0.010000,-0.927000,0.416000,2.730000,-4.580000,-0.420000,0.000000,0.000000,0.00,0.00,83.00
8.616423,-0.007000,-0.927000,0.414000,2.900000,-4.580000,-0.380000,0.000000,0.000000,0.00,0.00,83.00
8.616423,-0.009000,-0.926000,0.416000,3.010000,-4.790000,-0.490000,0.000000,0.000000,0.00,0.00,83.00
8.618177,-0.008000,-0.926000,0.420000,3.110000,-4.720000,-0.520000,0.000000,0.000000,0.00,0.00,83.00
8.618177,-0.007000,-0.921000,0.417000,3.040000,-4.650000,-0.490000,0.000000,0.000000,0.00,0.00,83.00
8.618177,-0.012000,-0.922000,0.420000,2.870000,-4.620000,-0.350000,0.000000,0.000000,0.00,0.00,83.00
8.618177,-0.009000,-0.924000,0.419000,2.800000,-4.860000,-0.420000,0.000000,0.000000,0.00,0.00,83.00
8.618177,-0.011000,-0.924000,0.420000,2.410000,-4.790000,-0.560000,0.000000,0.000000,0.00,0.00,83.00
8.618177,-0.012000,-0.922000,0.419000,2.060000,-4.760000,-0.660000,0.000000,0.000000,0.00,0.00,83.00
8.618177,-0.010000,-0.925000,0.420000,1.960000,-5.000000,-0.730000,0.000000,0.000000,0.00,0.00,83.00
8.618177,-0.010000,-0.922000,0.420000,1.640000,-5.040000,-0.840000,0.000000,0.000000,0.00,0.00,83.00
8.618177,-0.010000,-0.924000,0.419000,1.330000,-4.900000,-0.800000,0.000000,0.000000,0.00,0.00,83.00
8.676423,-0.007000,-0.924000,0.414000,1.360000,-5.000000,-0.870000,0.000000,0.000000,0.00,0.00,83.00
8.676423,-0.008000,-0.923000,0.414000,1.260000,-5.110000,-0.940000,0.000000,0.000000,0.00,0.00,83.00
8.676423,-0.010000,-0.925000,0.416000,1.120000,-4.930000,-0.870000,0.000000,0.000000,0.00,0.00,83.00
8.676423,-0.009000,-0.924000,0.414000,1.260000,-4.970000,-0.940000,0.000000,0.000000,0.00,0.00,83.00
8.676423,-0.008000,-0.922000,0.412000,1.430000,-5.070000,-0.910000,0.000000,0.000000,0.00,0.00,83.00
8.676423,-0.008000,-0.926000,0.415000,1.710000,-5.000000,-0.840000,0.000000,0.000000,0.00,0.00,83.00
8.676423,-0.006000,-0.926000,0.414000,1.710000,-4.690000,-0.700000,0.000000,0.000000,0.00,0.00,83.00
8.676423,-0.008000,-0.927000,0.414000,2.100000,-4.720000,-0.590000,0.000000,0.000000,0.00,0.00,83.00
8.676423,-0.008000,-0.928000,0.413000,2.410000,-4.760000,-0.630000,0.000000,0.000000,0.00,0.00,83.00
8.736729,-0.010000,-0.927000,0.415000,2.480000,-4.550000,-0.450000,0.000000,0.000000,0.00,0.00,83.00
8.736729,-0.008000,-0.924000,0.415000,2.660000,-4.550000,-0.380000,0.000000,0.000000,0.00,0.00,83.00
8.736729,-0.009000,-0.926000,0.415000,2.830000,-4.760000,-0.420000,0.000000,0.000000,0.00,0.00,83.00
8.736729,-0.010000,-0.923000,0.416000,2.760000,-4.650000,-0.560000,0.000000,0.000000,0.00,0.00,83.00
8.736729,-0.011000,-0.926000,0.416000,2.690000,-4.720000,-0.490000,0.000000,0.000000,0.00,0.00,83.00
8.736729,-0.010000,-0.925000,0.417000,2.760000,-4.860000,-0.560000,0.000000,0.000000,0.00,0.00,83.00
8.736729,-0.010000,-0.923000,0.417000,2.550000,-4.970000,-0.630000,0.000000,0.000000,0.00,0.00,83.00
8.736729,-0.007000,-0.922000,0.417000,2.410000,-4.860000,-0.730000,0.000000,0.000000,0.00,0.00,83.00
8.736729,-0.010000,-0.924000,0.416000,2.170000,-4.860000,-0.700000,0.000000,0.000000,0.00,0.00,83.00
8.737968,-0.008000,-0.924000,0.417000,1.780000,-4.790000,-0.660000,0.000000,0.000000,0.00,0.00,83.00
8.737968,-0.006000,-0.922000,0.416000,1.640000,-4.930000,-0.700000,0.000000,0.000000,0.00,0.00,83.00
8.737968,-0.005000,-0.924000,0.418000,1.470000,-4.720000,-0.660000,0.000000,0.000000,0.00,0.00,83.00
8.737968,-0.010000,-0.924000,0.414000,1.260000,-4.720000,-0.590000,0.000000,0.000000,0.00,0.00,83.00
